File: Test-CV-with_Flat-ITO.txt
WE(1).Potential (V)	WE(1).Current (A)	WE(1).Current (A)	WE(1).Current (A)	WE(1).Current (A)	WE(1).Current (A)	WE(1).Current (A)	WE(1).Current (A)	WE(1).Current (A)	WE(1).Current (A)	WE(1).Current (A)
-0.197968	-3.9917e-05	-1.10016e-05	-9.86633e-06	-8.88977e-06	-7.99866e-06	-7.16858e-06	-6.30188e-06	-5.41077e-06	-4.50134e-06	-3.45764e-06
-0.180847	-3.23883e-05	-3.85437e-06	-3.3905e-06	-3.08838e-06	-2.80762e-06	-2.62451e-06	-2.39258e-06	-2.21252e-06	-2.07214e-06	-1.95618e-06
-0.163727	-2.78442e-05	-2.56958e-06	-2.10876e-06	-1.94397e-06	-1.79138e-06	-1.70593e-06	-1.6449e-06	-1.59607e-06	-1.57166e-06	-1.64185e-06
-0.146576	-2.4472e-05	-1.79443e-06	-1.44653e-06	-1.38855e-06	-1.29395e-06	-1.26038e-06	-1.26343e-06	-1.297e-06	-1.33972e-06	-1.48315e-06
-0.129486	-2.19147e-05	-1.38855e-06	-1.11389e-06	-1.01624e-06	-9.91821e-07	-9.73511e-07	-1.01624e-06	-1.07422e-06	-1.2085e-06	-1.3855e-06
-0.112396	-2.00317e-05	-1.02539e-06	-8.94165e-07	-7.8125e-07	-8.20923e-07	-7.75146e-07	-8.66699e-07	-9.33838e-07	-1.10474e-06	-1.31226e-06
-0.0952148	-1.83868e-05	-9.12476e-07	-6.01196e-07	-6.22559e-07	-6.46973e-07	-6.56128e-07	-7.44629e-07	-8.48389e-07	-1.01624e-06	-1.26038e-06
-0.0782166	-1.67969e-05	-6.62231e-07	-5.12695e-07	-4.79126e-07	-5.18799e-07	-5.76782e-07	-6.65283e-07	-7.8125e-07	-9.67407e-07	-1.2085e-06
-0.0610657	-1.55548e-05	-5.06592e-07	-4.11987e-07	-3.35693e-07	-4.39453e-07	-5.09644e-07	-5.7373e-07	-6.95801e-07	-9.0332e-07	-1.17798e-06
-0.0437927	-1.4505e-05	-4.60815e-07	-3.14331e-07	-2.59399e-07	-3.08228e-07	-3.93677e-07	-5.15747e-07	-6.43921e-07	-8.48389e-07	-1.12915e-06
-0.0266876	-1.35376e-05	-3.08228e-07	-2.10571e-07	-1.86157e-07	-2.22778e-07	-3.20435e-07	-4.18091e-07	-5.98145e-07	-8.02612e-07	-1.10168e-06
-0.00958862	-1.27075e-05	-2.62451e-07	-1.09863e-07	-1.70898e-07	-1.86157e-07	-2.7771e-07	-3.90625e-07	-5.52368e-07	-7.59888e-07	-1.05896e-06
0.00752563	-1.19019e-05	-1.31226e-07	-6.40869e-08	6.10352e-09	-8.54492e-08	-1.86157e-07	-3.57056e-07	-4.85229e-07	-7.1106e-07	-1.03455e-06
0.0245789	-1.09863e-05	3.05176e-09	-2.74658e-08	3.05176e-08	-5.18799e-08	-1.49536e-07	-2.7771e-07	-4.57764e-07	-7.01904e-07	-9.8877e-07
0.041629	-1.03729e-05	-1.2207e-08	1.09863e-07	1.25122e-07	6.10352e-09	-8.23975e-08	-2.34985e-07	-4.02832e-07	-6.40869e-07	-9.64355e-07
0.0586548	-9.63745e-06	1.28174e-07	2.22778e-07	1.86157e-07	7.93457e-08	-4.88281e-08	-1.7395e-07	-3.63159e-07	-6.10352e-07	-9.18579e-07
0.0757751	-9.01184e-06	2.2583e-07	2.83813e-07	2.83813e-07	1.58691e-07	7.93457e-08	-8.23975e-08	-3.26538e-07	-5.61523e-07	-8.81958e-07
0.092804	-8.28247e-06	3.54004e-07	3.44849e-07	3.72314e-07	2.92969e-07	9.76562e-08	-5.49316e-08	-2.13623e-07	-4.82178e-07	-8.39233e-07
0.109863	-7.62024e-06	4.94385e-07	5.12695e-07	5.09644e-07	3.479e-07	2.50244e-07	5.49316e-08	-1.40381e-07	-4.08936e-07	-7.8125e-07
0.126953	-7.00378e-06	6.34766e-07	7.47681e-07	6.50024e-07	5.34058e-07	3.44849e-07	1.86157e-07	-4.88281e-08	-3.32642e-07	-6.92749e-07
0.143982	-6.28357e-06	9.52148e-07	9.58252e-07	8.75854e-07	7.38525e-07	5.79834e-07	3.60107e-07	1.31226e-07	-1.70898e-07	-5.7373e-07
0.161011	-5.42908e-06	1.297e-06	1.29395e-06	1.19019e-06	1.04675e-06	8.63647e-07	6.53076e-07	3.9978e-07	5.49316e-08	-3.8147e-07
0.178192	-4.51355e-06	1.88599e-06	1.77917e-06	1.67542e-06	1.52588e-06	1.32446e-06	1.09558e-06	8.14819e-07	4.45557e-07	-5.49316e-08
0.19519	-3.01208e-06	2.72217e-06	2.70996e-06	2.5238e-06	2.36206e-06	2.12402e-06	1.89209e-06	1.53809e-06	1.10474e-06	4.88281e-07
0.21228	-1.22681e-06	4.31213e-06	4.18091e-06	3.94287e-06	3.75061e-06	3.45459e-06	3.1189e-06	2.74048e-06	2.20947e-06	1.44958e-06
0.229279	1.49536e-06	6.6864e-06	6.55518e-06	6.28052e-06	6.02112e-06	5.6427e-06	5.26733e-06	4.76379e-06	4.0863e-06	3.05176e-06
0.246368	5.68848e-06	1.0672e-05	1.04248e-05	1.01135e-05	9.75037e-06	9.25598e-06	8.73718e-06	8.08411e-06	7.15637e-06	5.74036e-06
0.263428	1.20209e-05	1.67175e-05	1.64032e-05	1.60889e-05	1.55518e-05	1.49475e-05	1.42212e-05	1.33087e-05	1.20331e-05	9.9884e-06
0.280457	2.10815e-05	2.57935e-05	2.53967e-05	2.48444e-05	2.4234e-05	2.33429e-05	2.23755e-05	2.10815e-05	1.92719e-05	1.62872e-05
0.297546	3.33649e-05	3.8385e-05	3.78326e-05	3.70819e-05	3.60687e-05	3.49304e-05	3.34778e-05	3.16528e-05	2.9068e-05	2.47131e-05
0.314667	4.89014e-05	5.42603e-05	5.34668e-05	5.23071e-05	5.09949e-05	4.93958e-05	4.73297e-05	4.47479e-05	4.09821e-05	3.47137e-05
0.331726	6.65894e-05	7.24792e-05	7.12891e-05	6.97632e-05	6.78406e-05	6.55212e-05	6.27136e-05	5.896e-05	5.37109e-05	4.48242e-05
0.348846	8.48999e-05	9.14307e-05	8.96912e-05	8.74939e-05	8.47778e-05	8.15735e-05	7.76367e-05	7.25403e-05	6.53076e-05	5.33752e-05
0.365875	0.000102051	0.000108948	0.000106598	0.000103516	0.000100006	9.57031e-05	9.04541e-05	8.36487e-05	7.42493e-05	5.91125e-05
0.382935	0.000116638	0.000123779	0.000120514	0.000116577	0.000112061	0.000106537	9.98535e-05	9.13391e-05	7.98035e-05	6.18591e-05
0.400024	0.000127777	0.000134827	0.000130798	0.000126038	0.000120361	0.000113708	0.000105682	9.56421e-05	8.23059e-05	6.21643e-05
0.417084	0.00013562	0.000142517	0.000137634	0.000131958	0.000125336	0.000117615	0.000108429	9.71985e-05	8.24585e-05	6.09436e-05
0.434235	0.000140381	0.000147034	0.000141388	0.000134918	0.000127533	0.000118988	0.000108948	9.67712e-05	8.11768e-05	5.896e-05
0.451202	0.000142944	0.000149048	0.000143005	0.000135864	0.000127869	0.000118683	0.000108002	9.52454e-05	7.91321e-05	5.66711e-05
0.468323	0.000143677	0.000149597	0.000142883	0.000135345	0.000126892	0.000117218	0.000106171	9.30481e-05	7.67212e-05	5.43518e-05
0.485352	0.000143402	0.000148804	0.000141815	0.000133881	0.000125092	0.000115173	0.000103882	9.05762e-05	7.421875E-05	5.2124e-05
0.502441	0.000142181	0.000147278	0.000139984	0.000131836	0.000122833	0.000112732	0.000101318	8.79822e-05	7.17163e-05	5.00488e-05
0.519501	0.000140289	0.000145203	0.000137726	0.000129425	0.0001203	0.000110107	9.86633e-05	8.54187e-05	6.93665e-05	4.80988e-05
0.53656	0.000138123	0.0001427	0.000135162	0.000126801	0.000117615	0.000107483	9.60388e-05	8.28857e-05	6.70776e-05	4.63165e-05
0.553619	0.00013559	0.000140137	0.000132507	0.000123993	0.000114899	0.000104797	9.34448e-05	8.04749e-05	6.49109e-05	4.46655e-05
0.570648	0.000133026	0.000137299	0.000129639	0.000121246	0.000112152	0.000102051	9.09119e-05	7.8125E-05	6.28967e-05	4.31366e-05
0.587677	0.000130249	0.000134247	0.00012677	0.000118439	0.000109344	9.94873e-05	8.84705e-05	7.58972e-05	6.10046e-05	4.17206e-05
0.604828	0.000127258	0.000131409	0.000123901	0.000115662	0.00010675	9.69543e-05	8.60901e-05	7.37915e-05	5.92041e-05	4.04022e-05
0.621826	0.000124725	0.000128662	0.000121094	0.000112946	0.000104156	9.45435e-05	8.38318e-05	7.17468e-05	5.74951e-05	3.91815e-05
0.638977	0.000121918	0.000125763	0.000118347	0.000110321	0.000101685	9.21631e-05	8.16956e-05	6.98853e-05	5.59082e-05	3.80463e-05
0.656097	0.000119171	0.000122955	0.000115784	0.000107788	9.92737e-05	8.99353e-05	7.96509e-05	6.80542e-05	5.44128e-05	3.69843e-05
0.673218	0.000116699	0.000120209	0.000113098	0.000105377	9.69238e-05	8.77991e-05	7.76978e-05	6.63757e-05	5.3009e-05	3.59833e-05
0.690308	0.000113953	0.000117584	0.000110657	0.000102966	9.47266e-05	8.57239e-05	7.58667e-05	6.47583e-05	5.16663e-05	3.50586e-05
0.707397	0.00011145	0.000115173	0.000108215	0.000100739	9.25903e-05	8.38318e-05	7.41272e-05	6.32019e-05	5.04456e-05	3.41705e-05
0.724548	0.000109161	0.000112762	0.000105957	9.85718e-05	9.05762e-05	8.19702e-05	7.24487e-05	6.17371e-05	4.92279e-05	3.33649e-05
0.741669	0.000106934	0.000110413	0.000103699	9.64661e-05	8.86536e-05	8.01697e-05	7.08313e-05	6.03638e-05	4.81049e-05	3.25775e-05
0.758362	0.000104706	0.000108154	0.000101593	9.44519e-05	8.6792e-05	7.84302e-05	6.93054e-05	5.90515e-05	4.70367e-05	3.18634e-05
0.776062	0.000102631	0.000105957	9.96399e-05	9.25598e-05	8.49915e-05	7.68433e-05	6.79016e-05	5.78308e-05	4.60571e-05	3.1189e-05
0.793152	0.000100586	0.000103973	9.77173e-05	9.07593e-05	8.33435e-05	7.53174e-05	6.65283e-05	5.66711e-05	4.51202e-05	3.05359e-05
0.790405	9.47266e-05	9.81445e-05	9.23767e-05	8.59375E-05	7.90405e-05	7.15027e-05	6.32629e-05	5.40161e-05	4.31519e-05	2.93457e-05
0.773315	8.9386e-05	9.27734e-05	8.73413e-05	8.14514e-05	7.50732e-05	6.80237e-05	6.03333e-05	5.16357e-05	4.13818e-05	2.82745e-05
0.756836	8.52661e-05	8.86536e-05	8.36182e-05	7.79724e-05	7.18994e-05	6.52771e-05	5.79834e-05	4.9707e-05	3.99719e-05	2.73926e-05
0.739197	8.1665e-05	8.51135e-05	8.02307e-05	7.49817e-05	6.92139e-05	6.28662e-05	5.59692e-05	4.80591e-05	3.86993e-05	2.66052e-05
0.722076	7.85217e-05	8.17566e-05	7.72095e-05	7.22656e-05	6.67419e-05	6.07605e-05	5.41077e-05	4.65607e-05	3.75519e-05	2.58942e-05
0.705017	7.5531e-05	7.8949e-05	7.4585e-05	6.97327e-05	6.45447e-05	5.88074e-05	5.24597e-05	4.5163e-05	3.6496e-05	2.52136e-05
0.687958	7.2876e-05	7.62024e-05	7.2052e-05	6.74744e-05	6.2439e-05	5.69153e-05	5.08423e-05	4.38324e-05	3.55072e-05	2.45911e-05
0.670746	7.02209e-05	7.34558e-05	6.95801e-05	6.52161e-05	6.04553e-05	5.51453e-05	4.92889e-05	4.25964e-05	3.45428e-05	2.39716e-05
0.653687	6.78101e-05	7.10449e-05	6.71692e-05	6.30798e-05	5.85022e-05	5.34668e-05	4.78119e-05	4.13727e-05	3.3606e-05	2.33917e-05
0.636505	6.53076e-05	6.8512e-05	6.49719e-05	6.10046e-05	5.66711e-05	5.18188e-05	4.63715e-05	4.01917e-05	3.27026e-05	2.28119e-05
0.619446	6.29883e-05	6.61316e-05	6.27136e-05	5.89905e-05	5.48096e-05	5.01709e-05	4.49829e-05	3.9032e-05	3.18268e-05	2.22595e-05
0.602356	6.06384e-05	6.37512e-05	6.05469e-05	5.69458e-05	5.29175e-05	4.85382e-05	4.36157e-05	3.78754e-05	3.09509e-05	2.1698e-05
0.585266	5.83801e-05	6.13403e-05	5.83496e-05	5.49316e-05	5.11475e-05	4.69238e-05	4.22058e-05	3.6731e-05	3.00629e-05	2.11304e-05
0.568207	5.60303e-05	5.9082e-05	5.60913e-05	5.29175e-05	4.9295e-05	4.53003e-05	4.07867e-05	3.55621e-05	2.91718e-05	2.0575e-05
0.551178	5.37415e-05	5.66406e-05	5.39551e-05	5.08423e-05	4.7467e-05	4.36401e-05	3.93707e-05	3.44025e-05	2.82928e-05	2.00073e-05
0.534119	5.1239e-05	5.42297e-05	5.16052e-05	4.8822e-05	4.55536e-05	4.19861e-05	3.7915e-05	3.31787e-05	2.73407e-05	1.94305e-05
0.51709	4.87213e-05	5.16052e-05	4.92859e-05	4.66553e-05	4.36157e-05	4.02222e-05	3.64166e-05	3.19275e-05	2.63916e-05	1.88141e-05
0.499969	4.62097e-05	4.9057e-05	4.68689e-05	4.44153e-05	4.15649e-05	3.84491e-05	3.48297e-05	3.06152e-05	2.53815e-05	1.81946e-05
0.482849	4.34967e-05	4.63104e-05	4.43878e-05	4.21021e-05	3.94379e-05	3.65265e-05	3.31757e-05	2.9248e-05	2.43042e-05	1.74988e-05
0.46582	4.07349e-05	4.34357e-05	4.15619e-05	3.94653e-05	3.70941e-05	3.44513e-05	3.13354e-05	2.76855e-05	2.30927e-05	1.67419e-05
0.448761	3.74847e-05	4.01642e-05	3.85315e-05	3.66364e-05	3.45093e-05	3.20526e-05	2.92755e-05	2.59796e-05	2.17255e-05	1.58417e-05
0.431702	3.3963e-05	3.64441e-05	3.51227e-05	3.34259e-05	3.1543e-05	2.93427e-05	2.68738e-05	2.38525e-05	2.00867e-05	1.47125e-05
0.414612	2.97974e-05	3.22174e-05	3.10242e-05	2.95502e-05	2.79999e-05	2.60468e-05	2.38861e-05	2.12921e-05	1.79657e-05	1.32141e-05
0.397552	2.47772e-05	2.71271e-05	2.60559e-05	2.48688e-05	2.35077e-05	2.1994e-05	2.01477e-05	1.796875E-05	1.51459e-05	1.1142e-05
0.380524	1.85822e-05	2.06573e-05	1.99066e-05	1.8985e-05	1.7984e-05	1.6687e-05	1.5271e-05	1.35742e-05	1.13464e-05	8.20313e-06
0.363434	1.09558e-05	1.27899e-05	1.22437e-05	1.16638e-05	1.09009e-05	1.00342e-05	8.96912e-06	7.77893e-06	6.22559e-06	4.09241e-06
0.346405	1.86157e-06	3.51257e-06	3.18604e-06	2.82898e-06	2.31323e-06	1.75171e-06	1.17493e-06	4.69971e-07	-3.90625e-07	-1.41602e-06
0.329315	-8.57239e-06	-7.03125E-06	-7.18689e-06	-7.39746e-06	-7.60803e-06	-7.80945e-06	-8.02002e-06	-8.21533e-06	-8.35571e-06	-8.20923e-06
0.312225	-1.95557e-05	-1.81976e-05	-1.83136e-05	-1.82343e-05	-1.81702e-05	-1.81061e-05	-1.79779e-05	-1.76544e-05	-1.71021e-05	-1.57471e-05
0.295197	-3.06305e-05	-2.93701e-05	-2.91718e-05	-2.89825e-05	-2.86469e-05	-2.82745e-05	-2.77679e-05	-2.69653e-05	-2.57019e-05	-2.31232e-05
0.278137	-4.07501e-05	-3.94836e-05	-3.91266e-05	-3.86383e-05	-3.81653e-05	-3.74298e-05	-3.65173e-05	-3.51868e-05	-3.31909e-05	-2.92969e-05
0.261078	-4.96155e-05	-4.79675e-05	-4.74274e-05	-4.68231e-05	-4.59473e-05	-4.49585e-05	-4.35547e-05	-4.17175e-05	-3.89038e-05	-3.37341e-05
0.243927	-5.69458e-05	-5.49316e-05	-5.41687e-05	-5.32532e-05	-5.2063e-05	-5.06897e-05	-4.88403e-05	-4.63806e-05	-4.27429e-05	-3.62854e-05
0.226868	-6.25916e-05	-6.02112e-05	-5.92346e-05	-5.79224e-05	-5.6427e-05	-5.46875E-05	-5.23987e-05	-4.93073e-05	-4.49188e-05	-3.73413e-05
0.209839	-6.71082e-05	-6.40259e-05	-6.27441e-05	-6.11877e-05	-5.93872e-05	-5.7251e-05	-5.44739e-05	-5.09338e-05	-4.58282e-05	-3.73138e-05
0.192749	-7.04346e-05	-6.67725e-05	-6.51855e-05	-6.33545e-05	-6.12183e-05	-5.87158e-05	-5.55725e-05	-5.15137e-05	-4.58282e-05	-3.66119e-05
0.175629	-7.2998e-05	-6.86646e-05	-6.6803e-05	-6.46667e-05	-6.22559e-05	-5.93872e-05	-5.58777e-05	-5.13916e-05	-4.52698e-05	-3.55591e-05
0.158691	-7.4707e-05	-6.98853e-05	-6.77185e-05	-6.53076e-05	-6.26221e-05	-5.95093e-05	-5.56946e-05	-5.08728e-05	-4.43512e-05	-3.43231e-05
0.141602	-7.57446e-05	-7.04346e-05	-6.80542e-05	-6.54907e-05	-6.2561e-05	-5.92041e-05	-5.51147e-05	-4.99878e-05	-4.32556e-05	-3.30231e-05
0.124451	-7.65076e-05	-7.05872e-05	-6.79932e-05	-6.52771e-05	-6.21338e-05	-5.85327e-05	-5.42297e-05	-4.8941e-05	-4.20105e-05	-3.17139e-05
0.107452	-7.68738e-05	-7.03735e-05	-6.7688e-05	-6.47278e-05	-6.14319e-05	-5.76477e-05	-5.32227e-05	-4.77356e-05	-4.07013e-05	-3.04352e-05
0.0903015	-7.67517e-05	-6.99768e-05	-6.70471e-05	-6.39648e-05	-6.04858e-05	-5.66101e-05	-5.20325e-05	-4.64722e-05	-3.93707e-05	-2.91779e-05
0.0732727	-7.63855e-05	-6.91223e-05	-6.61316e-05	-6.28967e-05	-5.93872e-05	-5.54199e-05	-5.07507e-05	-4.51416e-05	-3.80463e-05	-2.79907e-05
0.0561829	-7.57446e-05	-6.81458e-05	-6.50635e-05	-6.17981e-05	-5.81665e-05	-5.41077e-05	-4.93561e-05	-4.37592e-05	-3.67096e-05	-2.68372e-05
0.0392029	-7.49207e-05	-6.70471e-05	-6.38733e-05	-6.04553e-05	-5.68237e-05	-5.27039e-05	-4.79584e-05	-4.23584e-05	-3.54156e-05	-2.57507e-05
0.0221344	-7.3822e-05	-6.57654e-05	-6.25E-05	-5.91125e-05	-5.54504e-05	-5.13e-05	-4.65485e-05	-4.09851e-05	-3.41431e-05	-2.4707e-05
0.0050415	-7.27234e-05	-6.43616e-05	-6.10962e-05	-5.77087e-05	-5.39856e-05	-4.98352e-05	-4.51569e-05	-3.96515e-05	-3.28888e-05	-2.37335e-05
-0.0120575	-7.14722e-05	-6.29272e-05	-5.96313e-05	-5.61829e-05	-5.25513e-05	-4.83429e-05	-4.37439e-05	-3.83179e-05	-3.17291e-05	-2.27936e-05
-0.0291748	-7.00073e-05	-6.14929e-05	-5.8197e-05	-5.4718e-05	-5.09644e-05	-4.69208e-05	-4.2334e-05	-3.70453e-05	-3.05878e-05	-2.19238e-05
-0.0462799	-6.86951e-05	-5.98755e-05	-5.66406e-05	-5.31921e-05	-4.94965e-05	-4.54651e-05	-4.10065e-05	-3.57666e-05	-2.95197e-05	-2.10999e-05
-0.0634766	-6.71692e-05	-5.83801e-05	-5.50842e-05	-5.17273e-05	-4.80438e-05	-4.40857e-05	-3.96759e-05	-3.45886e-05	-2.84576e-05	-2.03156e-05
-0.0805359	-6.57043e-05	-5.69153e-05	-5.35583e-05	-5.02625e-05	-4.66064e-05	-4.27307e-05	-3.84155e-05	-3.34198e-05	-2.74567e-05	-1.9577e-05
-0.0977478	-6.40564e-05	-5.52979e-05	-5.20325e-05	-4.87762e-05	-4.52362e-05	-4.14093e-05	-3.71674e-05	-3.23273e-05	-2.6532e-05	-1.88812e-05
-0.114807	-6.26526e-05	-5.38025e-05	-5.06287e-05	-4.73114e-05	-4.3869e-05	-4.01215e-05	-3.59924e-05	-3.12439e-05	-2.56195e-05	-1.82281e-05
-0.131958	-6.11267e-05	-5.23376e-05	-4.91272e-05	-4.59473e-05	-4.25812e-05	-3.88763e-05	-3.48328e-05	-3.0249e-05	-2.47711e-05	-1.75934e-05
-0.149078	-5.97839e-05	-5.09644e-05	-4.78088e-05	-4.46686e-05	-4.13177e-05	-3.77686e-05	-3.37524e-05	-2.92938e-05	-2.39563e-05	-1.70135e-05
-0.166138	-5.83801e-05	-4.95636e-05	-4.64447e-05	-4.33105e-05	-4.00879e-05	-3.66241e-05	-3.27423e-05	-2.83539e-05	-2.32086e-05	-1.64551e-05
-0.183197	-5.70679e-05	-4.81598e-05	-4.50348e-05	-4.20898e-05	-3.89313e-05	-3.55469e-05	-3.17688e-05	-2.74811e-05	-2.2467e-05	-1.59454e-05
-0.200378	-5.56335e-05	-4.69055e-05	-4.39575e-05	-4.09485e-05	-3.78357e-05	-3.45062e-05	-3.08014e-05	-2.6651e-05	-2.17712e-05	-1.5448e-05
-0.183319	-4.97131e-05	-4.17603e-05	-3.91571e-05	-3.66241e-05	-3.38928e-05	-3.10303e-05	-2.7829e-05	-2.4176e-05	-1.99097e-05	-1.42883e-05
-0.166199	-4.61121e-05	-3.86536e-05	-3.6203e-05	-3.38806e-05	-3.14545e-05	-2.88727e-05	-2.59644e-05	-2.2641e-05	-1.86981e-05	-1.35071e-05
-0.148987	-4.31976e-05	-3.60321e-05	-3.38562e-05	-3.16956e-05	-2.95013e-05	-2.7066e-05	-2.43866e-05	-2.13501e-05	-1.76971e-05	-1.28601e-05
-0.131866	-4.06586e-05	-3.37738e-05	-3.1839e-05	-2.98615e-05	-2.78076e-05	-2.55524e-05	-2.30774e-05	-2.01996e-05	-1.68091e-05	-1.22742e-05
-0.114838	-3.84216e-05	-3.18665e-05	-2.99896e-05	-2.80945e-05	-2.62299e-05	-2.41669e-05	-2.18201e-05	-1.91833e-05	-1.60065e-05	-1.17493e-05
-0.0976868	-3.62579e-05	-3.00446e-05	-2.83112e-05	-2.66144e-05	-2.48199e-05	-2.29095e-05	-2.07458e-05	-1.82465e-05	-1.52924e-05	-1.12671e-05
-0.0806274	-3.42499e-05	-2.83417e-05	-2.6767e-05	-2.52075e-05	-2.35107e-05	-2.17712e-05	-1.97113e-05	-1.73981e-05	-1.46057e-05	-1.08063e-05
-0.0634766	-3.25714e-05	-2.68097e-05	-2.53235e-05	-2.38464e-05	-2.23114e-05	-2.06238e-05	-1.87439e-05	-1.65924e-05	-1.39801e-05	-1.03973e-05
-0.0462677	-3.07892e-05	-2.53418e-05	-2.39594e-05	-2.26044e-05	-2.11975e-05	-1.95679e-05	-1.78772e-05	-1.58295e-05	-1.33698e-05	-9.97925e-06
-0.0291809	-2.91962e-05	-2.40479e-05	-2.27509e-05	-2.13959e-05	-2.01172e-05	-1.8634e-05	-1.69952e-05	-1.5097e-05	-1.28021e-05	-9.60693e-06
-0.0120728	-2.76581e-05	-2.27295e-05	-2.14661e-05	-2.03125E-05	-1.90338e-05	-1.77216e-05	-1.61743e-05	-1.43829e-05	-1.22223e-05	-9.22546e-06
0.00508118	-2.63306e-05	-2.14417e-05	-2.03064e-05	-1.92078e-05	-1.80786e-05	-1.67969e-05	-1.53809e-05	-1.37115e-05	-1.17004e-05	-8.87146e-06
0.0221466	-2.48352e-05	-2.02515e-05	-1.92444e-05	-1.8161e-05	-1.71173e-05	-1.59637e-05	-1.46027e-05	-1.30829e-05	-1.11969e-05	-8.5144e-06
0.0392059	-2.34436e-05	-1.90735e-05	-1.81366e-05	-1.71753e-05	-1.62323e-05	-1.51062e-05	-1.38855e-05	-1.2439e-05	-1.0675e-05	-8.18481e-06
0.0562744	-2.21069e-05	-1.79871e-05	-1.70288e-05	-1.61804e-05	-1.53107e-05	-1.43005e-05	-1.31256e-05	-1.18317e-05	-1.01929e-05	-7.83691e-06
0.0733032	-2.08862e-05	-1.67999e-05	-1.60461e-05	-1.521e-05	-1.43829e-05	-1.34888e-05	-1.24359e-05	-1.12244e-05	-9.68933e-06	-7.51648e-06
0.0903625	-1.953125E-05	-1.57745e-05	-1.49506e-05	-1.42609e-05	-1.34949e-05	-1.26892e-05	-1.17523e-05	-1.0614e-05	-9.21326e-06	-7.17468e-06
0.107422	-1.81488e-05	-1.4682e-05	-1.39618e-05	-1.33026e-05	-1.26343e-05	-1.18835e-05	-1.10199e-05	-1.00006e-05	-8.71582e-06	-6.82678e-06
0.124512	-1.69891e-05	-1.35986e-05	-1.29456e-05	-1.23444e-05	-1.17004e-05	-1.10992e-05	-1.03058e-05	-9.38416e-06	-8.19702e-06	-6.47583e-06
0.141571	-1.55548e-05	-1.23474e-05	-1.18927e-05	-1.13251e-05	-1.08398e-05	-1.02173e-05	-9.54285e-06	-8.71582e-06	-7.65076e-06	-6.0791e-06
0.158661	-1.41449e-05	-1.12274e-05	-1.07544e-05	-1.0257e-05	-9.77478e-06	-9.28345e-06	-8.66699e-06	-7.93762e-06	-7.01599e-06	-5.62439e-06
0.17572	-1.25977e-05	-9.84802e-06	-9.36584e-06	-9.02405e-06	-8.60901e-06	-8.21228e-06	-7.67212e-06	-7.07703e-06	-6.24695e-06	-5.03845e-06
0.19281	-1.07758e-05	-8.14514e-06	-7.8064e-06	-7.49817e-06	-7.15637e-06	-6.81458e-06	-6.43921e-06	-5.90515e-06	-5.24597e-06	-4.2572e-06
0.209839	-8.35266e-06	-5.96619e-06	-5.72815e-06	-5.46265e-06	-5.23071e-06	-4.98352e-06	-4.67529e-06	-4.31519e-06	-3.85132e-06	-3.10669e-06
0.226898	-5.13611e-06	-3.02734e-06	-2.83508e-06	-2.65808e-06	-2.5238e-06	-2.33154e-06	-2.18506e-06	-1.98059e-06	-1.73645e-06	-1.35498e-06
0.243988	-7.75146e-07	1.25732e-06	1.44043e-06	1.52283e-06	1.50757e-06	1.51672e-06	1.51978e-06	1.52588e-06	1.49841e-06	1.3855e-06
0.261017	5.70068e-06	7.49817e-06	7.58972e-06	7.54089e-06	7.41272e-06	7.27234e-06	7.05566e-06	6.77185e-06	6.32324e-06	5.55725e-06
0.278076	1.45447e-05	1.64124e-05	1.633e-05	1.61255e-05	1.58173e-05	1.54297e-05	1.49323e-05	1.42883e-05	1.33362e-05	1.16394e-05
0.295166	2.63824e-05	2.83783e-05	2.81128e-05	2.76794e-05	2.71942e-05	2.64709e-05	2.56042e-05	2.4472e-05	2.27661e-05	1.9751e-05
0.312256	4.12872e-05	4.33594e-05	4.2868e-05	4.21478e-05	4.13116e-05	4.02039e-05	3.88123e-05	3.69293e-05	3.4198e-05	2.94342e-05
0.329315	5.8197e-05	6.04248e-05	5.96619e-05	5.85632e-05	5.71594e-05	5.55115e-05	5.33752e-05	5.05371e-05	4.64294e-05	3.93158e-05
0.346375	7.58362e-05	7.80945e-05	7.68433e-05	7.52563e-05	7.32117e-05	7.07397e-05	6.75964e-05	6.35376e-05	5.76477e-05	4.776e-05
0.363464	9.22241e-05	9.44519e-05	9.25903e-05	9.03625e-05	8.74329e-05	8.40149e-05	7.97119e-05	7.41577e-05	6.63452e-05	5.35278e-05
0.380524	0.000106049	0.000108063	0.000105621	0.000102386	9.86938e-05	9.41772e-05	8.86536e-05	8.1543e-05	7.17468e-05	5.62744e-05
0.397552	0.000116547	0.000118286	0.000115021	0.000111023	0.000106445	0.0001008	9.40857e-05	8.55713e-05	7.41272e-05	5.66101e-05
0.414673	0.000123657	0.000125061	0.000121002	0.000116333	0.000110748	0.000104279	9.65271e-05	8.68835e-05	7.41882e-05	5.53894e-05
0.431732	0.000127869	0.000128906	0.000124268	0.000118835	0.000112579	0.000105377	9.68018e-05	8.63647e-05	7.28455e-05	5.34058e-05
0.448761	0.000129883	0.000130432	0.000125336	0.000119415	0.00011261	0.000104797	9.57336e-05	8.47168e-05	7.07703e-05	5.11169e-05
0.46582	0.000130341	0.000130585	0.000125061	0.000118652	0.000111481	0.000103271	9.38416e-05	8.25195e-05	6.83289e-05	4.88159e-05
0.483002	0.000129639	0.000129669	0.000123779	0.000117126	0.00010965	0.000101196	9.14917e-05	8.00476e-05	6.58875e-05	4.66187e-05
0.499969	0.000128235	0.000128052	0.000121857	0.000115021	0.000107391	9.87549e-05	8.89893e-05	7.75146e-05	6.34766e-05	4.45801e-05
0.517059	0.000126282	0.000125916	0.000119629	0.000112671	0.000104889	9.62219e-05	8.64258e-05	7.50427e-05	6.11572e-05	4.27032e-05
0.534119	0.000123962	0.000123505	0.000117157	0.000110107	0.000102356	9.36584e-05	8.39233e-05	7.26318e-05	5.896e-05	4.0976e-05
0.551147	0.000121429	0.000120911	0.000114502	0.000107483	9.97314e-05	9.11255e-05	8.14209e-05	7.03125E-05	5.69458e-05	3.94043e-05
0.568268	0.000118927	0.000118256	0.000111938	0.000104828	9.7168e-05	8.8623e-05	7.9071e-05	6.81458e-05	5.50232e-05	3.79517e-05
0.585297	0.000116211	0.000115723	0.000109283	0.000102325	9.4635e-05	8.62122e-05	7.67517e-05	6.604e-05	5.32227e-05	3.6618e-05
0.602386	0.000113617	0.000113007	0.00010675	9.9762e-05	9.21936e-05	8.38623e-05	7.46155e-05	6.40564e-05	5.15442e-05	3.5379e-05
0.619446	0.000110901	0.000110321	0.000104156	9.73206e-05	8.98132e-05	8.1604e-05	7.25708e-05	6.22253e-05	4.99878e-05	3.4256e-05
0.636566	0.000108459	0.000107849	0.000101593	9.49707e-05	8.75854e-05	7.95593e-05	7.06177e-05	6.04858e-05	4.8526e-05	3.3197e-05
0.653656	0.000105804	0.000105408	9.93652e-05	9.26208e-05	8.54187e-05	7.74841e-05	6.87561e-05	5.88684e-05	4.71497e-05	3.22235e-05
0.670746	0.000103363	0.000102997	9.69849e-05	9.04236e-05	8.33435e-05	7.55615e-05	6.70166e-05	5.72815e-05	4.5871e-05	3.1308e-05
0.687836	0.000101105	0.000100616	9.48181e-05	8.83484e-05	8.13599e-05	7.37305e-05	6.53381e-05	5.58472e-05	4.46655e-05	3.046875E-05
0.704926	9.88464e-05	9.84802e-05	9.26514e-05	8.63647e-05	7.94983e-05	7.1991e-05	6.37207e-05	5.44739e-05	4.35364e-05	2.96661e-05
0.722076	9.66492e-05	9.6344e-05	9.06372e-05	8.44421e-05	7.76978e-05	7.04041e-05	6.22864e-05	5.31616e-05	4.24683e-05	2.89276e-05
0.739227	9.46045e-05	9.43298e-05	8.87756e-05	8.26416e-05	7.60193e-05	6.87866e-05	6.08826e-05	5.19409e-05	4.14856e-05	2.82349e-05
0.756226	9.26819e-05	9.23767e-05	8.69141e-05	8.09631e-05	7.44324e-05	6.73523e-05	5.95398e-05	5.08118e-05	4.05579e-05	2.75818e-05
0.773315	9.06677e-05	9.05457e-05	8.52356e-05	7.92847e-05	7.28455e-05	6.5918e-05	5.82886e-05	4.97009e-05	3.96729e-05	2.69806e-05
0.790405	8.88977e-05	8.88672e-05	8.35266e-05	7.76978e-05	7.14722e-05	6.46057e-05	5.70984e-05	4.86847e-05	3.88458e-05	2.64099e-05
0.792847	8.4198e-05	8.43811e-05	7.94678e-05	7.39441e-05	6.80237e-05	6.1615e-05	5.45349e-05	4.6579e-05	3.7265e-05	2.54395e-05
0.776367	7.92236e-05	7.94373e-05	7.48596e-05	6.99158e-05	6.44226e-05	5.84412e-05	5.18188e-05	4.43878e-05	3.56445e-05	2.44324e-05
0.758972	7.53784e-05	7.58057e-05	7.15637e-05	6.67419e-05	6.1676e-05	5.60303e-05	4.97528e-05	4.27155e-05	3.43658e-05	2.36511e-05
0.741669	7.2113e-05	7.26624e-05	6.86646e-05	6.41174e-05	5.92957e-05	5.39246e-05	4.79736e-05	4.12354e-05	3.32489e-05	2.29553e-05
0.724548	6.92444e-05	6.98853e-05	6.61011e-05	6.18286e-05	5.71899e-05	5.20935e-05	4.63928e-05	3.99261e-05	3.22693e-05	2.23206e-05
0.707428	6.67114e-05	6.73218e-05	6.36902e-05	5.96619e-05	5.52368e-05	5.0354e-05	4.49371e-05	3.87421e-05	3.13385e-05	2.17346e-05
0.690308	6.427e-05	6.50635e-05	6.15234e-05	5.76172e-05	5.34058e-05	4.87457e-05	4.35181e-05	3.75885e-05	3.04596e-05	2.11853e-05
0.673218	6.18591e-05	6.27441e-05	5.93872e-05	5.57556e-05	5.16968e-05	4.7229e-05	4.22272e-05	3.65173e-05	2.96539e-05	2.06543e-05
0.656128	5.95703e-05	6.05164e-05	5.74951e-05	5.39246e-05	5.00488e-05	4.57581e-05	4.09515e-05	3.54614e-05	2.88544e-05	2.01477e-05
0.638977	5.76172e-05	5.86243e-05	5.55115e-05	5.21545e-05	4.84528e-05	4.43359e-05	3.9743e-05	3.44513e-05	2.80762e-05	1.96503e-05
0.621887	5.55115e-05	5.64575e-05	5.36194e-05	5.03845e-05	4.69116e-05	4.29718e-05	3.8504e-05	3.34686e-05	2.73102e-05	1.9165e-05
0.604828	5.35278e-05	5.44739e-05	5.18188e-05	4.86694e-05	4.53308e-05	4.15771e-05	3.73444e-05	3.24677e-05	2.65503e-05	1.8689e-05
0.587738	5.15137e-05	5.24292e-05	4.98596e-05	4.69727e-05	4.37958e-05	4.02191e-05	3.61694e-05	3.1488e-05	2.58087e-05	1.82159e-05
0.570679	4.93744e-05	5.04761e-05	4.80103e-05	4.52545e-05	4.22302e-05	3.88458e-05	3.49731e-05	3.05054e-05	2.50488e-05	1.7746e-05
0.55368	4.73602e-05	4.84467e-05	4.61884e-05	4.35089e-05	4.06067e-05	3.74359e-05	3.37585e-05	2.94952e-05	2.42828e-05	1.72546e-05
0.536621	4.51691e-05	4.62524e-05	4.42871e-05	4.17755e-05	3.9035e-05	3.60107e-05	3.25073e-05	2.84698e-05	2.34772e-05	1.67633e-05
0.51947	4.30939e-05	4.42352e-05	4.22455e-05	3.99292e-05	3.74115e-05	3.4549e-05	3.12164e-05	2.73926e-05	2.26776e-05	1.62415e-05
0.502411	4.08478e-05	4.19769e-05	4.01459e-05	3.80402e-05	3.57025e-05	3.29315e-05	2.98859e-05	2.62878e-05	2.18109e-05	1.57013e-05
0.485352	3.85468e-05	3.96179e-05	3.80157e-05	3.60291e-05	3.38226e-05	3.13385e-05	2.84668e-05	2.51038e-05	2.08893e-05	1.51093e-05
0.468262	3.58826e-05	3.7146e-05	3.55774e-05	3.38043e-05	3.1839e-05	2.95166e-05	2.68951e-05	2.37854e-05	1.98608e-05	1.44531e-05
0.451202	3.32428e-05	3.43933e-05	3.29803e-05	3.14087e-05	2.96143e-05	2.75482e-05	2.51404e-05	2.23114e-05	1.86859e-05	1.3678e-05
0.434174	3.00323e-05	3.12622e-05	3.0014e-05	2.86346e-05	2.70111e-05	2.51984e-05	2.3056e-05	2.04834e-05	1.72394e-05	1.26923e-05
0.417145	2.62695e-05	2.7533e-05	2.65594e-05	2.52869e-05	2.3996e-05	2.23267e-05	2.04376e-05	1.82526e-05	1.539e-05	1.1377e-05
0.399994	2.18719e-05	2.29645e-05	2.21588e-05	2.11456e-05	2.00134e-05	1.86981e-05	1.71692e-05	1.53015e-05	1.2912e-05	9.53064e-06
0.382904	1.62018e-05	1.72791e-05	1.66718e-05	1.5921e-05	1.49933e-05	1.39862e-05	1.27716e-05	1.13464e-05	9.47876e-06	6.87561e-06
0.365875	9.04846e-06	1.01318e-05	9.71985e-06	9.19495e-06	8.61816e-06	7.89795e-06	7.03125E-06	6.05469e-06	4.78516e-06	3.08533e-06
0.348785	5.95093e-07	1.53503e-06	1.27869e-06	9.52148e-07	6.2561e-07	1.86157e-07	-2.71606e-07	-7.90405e-07	-1.40381e-06	-2.07825e-06
0.331787	-9.41772e-06	-8.60291e-06	-8.59375E-06	-8.66699e-06	-8.81042e-06	-8.9386e-06	-9.05762e-06	-9.07593e-06	-9.01489e-06	-8.60291e-06
0.314728	-2.02911e-05	-1.95099e-05	-1.94e-05	-1.92719e-05	-1.91864e-05	-1.89941e-05	-1.87378e-05	-1.8338e-05	-1.75903e-05	-1.59973e-05
0.297577	-3.12622e-05	-3.05695e-05	-3.02979e-05	-3.00385e-05	-2.96753e-05	-2.91748e-05	-2.85675e-05	-2.76672e-05	-2.62604e-05	-2.34406e-05
0.280579	-4.16992e-05	-4.0918e-05	-4.05212e-05	-3.99506e-05	-3.93402e-05	-3.85742e-05	-3.7558e-05	-3.61511e-05	-3.39844e-05	-2.98737e-05
0.263489	-5.11169e-05	-4.99878e-05	-4.92523e-05	-4.8465e-05	-4.76318e-05	-4.65302e-05	-4.50989e-05	-4.30908e-05	-4.01215e-05	-3.46588e-05
0.246368	-5.86853e-05	-5.73425e-05	-5.6488e-05	-5.5481e-05	-5.42603e-05	-5.27344e-05	-5.08423e-05	-4.81995e-05	-4.44153e-05	-3.75793e-05
0.22934	-6.50024e-05	-6.32629e-05	-6.21033e-05	-6.0791e-05	-5.92041e-05	-5.7251e-05	-5.48706e-05	-5.16357e-05	-4.69757e-05	-3.89496e-05
0.21228	-7.00073e-05	-6.76575e-05	-6.61621e-05	-6.46057e-05	-6.26526e-05	-6.03943e-05	-5.74646e-05	-5.36499e-05	-4.82056e-05	-3.91693e-05
0.19516	-7.36084e-05	-7.09534e-05	-6.91833e-05	-6.72607e-05	-6.50024e-05	-6.22864e-05	-5.89294e-05	-5.45959e-05	-4.85229e-05	-3.86566e-05
0.17807	-7.65686e-05	-7.33643e-05	-7.13196e-05	-6.90918e-05	-6.64978e-05	-6.34155e-05	-5.96008e-05	-5.48096e-05	-4.82025e-05	-3.7735e-05
0.161041	-7.87354e-05	-7.50122e-05	-7.27234e-05	-7.01599e-05	-6.72913e-05	-6.38733e-05	-5.97534e-05	-5.45349e-05	-4.74731e-05	-3.65967e-05
0.143951	-8.02917e-05	-7.60803e-05	-7.35168e-05	-7.07092e-05	-6.75354e-05	-6.38123e-05	-5.94177e-05	-5.38635e-05	-4.65057e-05	-3.53729e-05
0.126923	-8.12683e-05	-7.65381e-05	-7.38831e-05	-7.08313e-05	-6.74438e-05	-6.3446e-05	-5.87769e-05	-5.3009e-05	-4.53796e-05	-3.41064e-05
0.109863	-8.19702e-05	-7.68433e-05	-7.38525e-05	-7.06482e-05	-6.69861e-05	-6.28052e-05	-5.79224e-05	-5.19409e-05	-4.41772e-05	-3.28552e-05
0.092804	-8.19702e-05	-7.66602e-05	-7.34558e-05	-7.00684e-05	-6.62842e-05	-6.20117e-05	-5.69153e-05	-5.078125E-05	-4.29291e-05	-3.16162e-05
0.0757141	-8.19397e-05	-7.61719e-05	-7.29675e-05	-6.93054e-05	-6.53687e-05	-6.09131e-05	-5.57556e-05	-4.9527e-05	-4.16351e-05	-3.04443e-05
0.0586548	-8.13904e-05	-7.55615e-05	-7.19299e-05	-6.84204e-05	-6.43005e-05	-5.97534e-05	-5.45044e-05	-4.82147e-05	-4.03442e-05	-2.92938e-05
0.0416229	-8.078e-05	-7.44934e-05	-7.10449e-05	-6.71997e-05	-6.30798e-05	-5.85022e-05	-5.32227e-05	-4.6875E-05	-3.90656e-05	-2.82013e-05
0.0245667	-7.9895e-05	-7.34253e-05	-6.97937e-05	-6.5979e-05	-6.17981e-05	-5.71594e-05	-5.18188e-05	-4.55322e-05	-3.78143e-05	-2.71698e-05
0.00749512	-7.87659e-05	-7.21436e-05	-6.85425e-05	-6.46057e-05	-6.03943e-05	-5.57556e-05	-5.04761e-05	-4.42139e-05	-3.65784e-05	-2.61688e-05
-0.00960388	-7.76672e-05	-7.08618e-05	-6.71387e-05	-6.32019e-05	-5.90515e-05	-5.43213e-05	-4.90723e-05	-4.29108e-05	-3.54004e-05	-2.52258e-05
-0.0267365	-7.63855e-05	-6.9458e-05	-6.57043e-05	-6.17981e-05	-5.76172e-05	-5.29785e-05	-4.76868e-05	-4.16351e-05	-3.4256e-05	-2.43378e-05
-0.0438293	-7.49207e-05	-6.80237e-05	-6.427e-05	-6.03638e-05	-5.61218e-05	-5.15442e-05	-4.63623e-05	-4.03748e-05	-3.31543e-05	-2.34894e-05
-0.0610046	-7.36694e-05	-6.64673e-05	-6.27136e-05	-5.88074e-05	-5.46875E-05	-5.01404e-05	-4.50043e-05	-3.91571e-05	-3.20892e-05	-2.26746e-05
-0.0781555	-7.20825e-05	-6.49109e-05	-6.12488e-05	-5.73425e-05	-5.32532e-05	-4.87671e-05	-4.37042e-05	-3.79608e-05	-3.1073e-05	-2.19269e-05
-0.0952759	-7.06787e-05	-6.35681e-05	-5.97229e-05	-5.59082e-05	-5.18799e-05	-4.73877e-05	-4.24713e-05	-3.68561e-05	-3.00995e-05	-2.12006e-05
-0.112396	-6.92139e-05	-6.19202e-05	-5.83496e-05	-5.44434e-05	-5.04456e-05	-4.6109e-05	-4.12598e-05	-3.57391e-05	-2.91656e-05	-2.0517e-05
-0.129456	-6.76575e-05	-6.05164e-05	-5.68237e-05	-5.31006e-05	-4.90936e-05	-4.48242e-05	-4.01123e-05	-3.46985e-05	-2.82806e-05	-1.987e-05
-0.146576	-6.61926e-05	-5.88684e-05	-5.53589e-05	-5.16968e-05	-4.77844e-05	-4.36279e-05	-3.89771e-05	-3.37128e-05	-2.74506e-05	-1.92688e-05
-0.163757	-6.47278e-05	-5.75867e-05	-5.40161e-05	-5.0415e-05	-4.65759e-05	-4.24347e-05	-3.78754e-05	-3.27515e-05	-2.66296e-05	-1.8689e-05
-0.180817	-6.32935e-05	-5.62439e-05	-5.27344e-05	-4.91058e-05	-4.53369e-05	-4.12628e-05	-3.68591e-05	-3.18115e-05	-2.58759e-05	-1.81549e-05
-0.197906	-6.20117e-05	-5.49316e-05	-5.13306e-05	-4.78638e-05	-4.4165e-05	-4.02283e-05	-3.58551e-05	-3.09601e-05	-2.51678e-05	-1.76331e-05
-0.18576	-5.62134e-05	-4.95636e-05	-4.65698e-05	-4.34235e-05	-4.02374e-05	-3.67157e-05	-3.28552e-05	-2.84576e-05	-2.32635e-05	-1.64551e-05
-0.168701	-5.2124e-05	-4.58984e-05	-4.3219e-05	-4.04144e-05	-3.74756e-05	-3.42438e-05	-3.07159e-05	-2.67151e-05	-2.19116e-05	-1.56036e-05
-0.151459	-4.88251e-05	-4.31305e-05	-4.05182e-05	-3.79333e-05	-3.52081e-05	-3.22906e-05	-2.89703e-05	-2.52655e-05	-2.07916e-05	-1.48773e-05
-0.134399	-4.61548e-05	-4.0564e-05	-3.815e-05	-3.57819e-05	-3.32397e-05	-3.05054e-05	-2.74719e-05	-2.39685e-05	-1.98212e-05	-1.42578e-05
-0.117249	-4.34875e-05	-3.82782e-05	-3.6087e-05	-3.38593e-05	-3.15125e-05	-2.89581e-05	-2.61108e-05	-2.28546e-05	-1.89362e-05	-1.36658e-05
-0.100128	-4.13208e-05	-3.62518e-05	-3.42285e-05	-3.20862e-05	-2.99469e-05	-2.75146e-05	-2.4881e-05	-2.17865e-05	-1.81152e-05	-1.3147e-05
-0.0830383	-3.91724e-05	-3.4436e-05	-3.2428e-05	-3.05054e-05	-2.84119e-05	-2.61993e-05	-2.36908e-05	-2.08618e-05	-1.73462e-05	-1.26343e-05
-0.0659485	-3.72101e-05	-3.27484e-05	-3.08655e-05	-2.89795e-05	-2.70996e-05	-2.49939e-05	-2.26318e-05	-1.99188e-05	-1.66595e-05	-1.21735e-05
-0.0487122	-3.53088e-05	-3.09509e-05	-2.92938e-05	-2.75848e-05	-2.57996e-05	-2.38007e-05	-2.16156e-05	-1.90826e-05	-1.59729e-05	-1.17157e-05
-0.0315735	-3.36151e-05	-2.93579e-05	-2.78168e-05	-2.62604e-05	-2.45422e-05	-2.27142e-05	-2.06818e-05	-1.83014e-05	-1.53229e-05	-1.12976e-05
-0.0144745	-3.19122e-05	-2.79053e-05	-2.64465e-05	-2.49176e-05	-2.33368e-05	-2.16339e-05	-1.97205e-05	-1.745e-05	-1.47003e-05	-1.08795e-05
0.00263977	-3.02551e-05	-2.65289e-05	-2.50763e-05	-2.36664e-05	-2.22382e-05	-2.06146e-05	-1.88141e-05	-1.66931e-05	-1.40961e-05	-1.04797e-05
0.0197235	-2.86652e-05	-2.50946e-05	-2.37793e-05	-2.24487e-05	-2.1106e-05	-1.96259e-05	-1.7926e-05	-1.59302e-05	-1.35193e-05	-1.00891e-05
0.0367706	-2.70599e-05	-2.37915e-05	-2.25311e-05	-2.1283e-05	-2.00409e-05	-1.8689e-05	-1.70776e-05	-1.52191e-05	-1.29425e-05	-9.70459e-06
0.0538025	-2.5589e-05	-2.24213e-05	-2.12463e-05	-2.01385e-05	-1.89941e-05	-1.76941e-05	-1.62445e-05	-1.45386e-05	-1.23901e-05	-9.32922e-06
0.0708313	-2.41699e-05	-2.10785e-05	-2.00958e-05	-1.90094e-05	-1.79779e-05	-1.67847e-05	-1.54053e-05	-1.38336e-05	-1.18134e-05	-8.95691e-06
0.0879211	-2.27234e-05	-1.97876e-05	-1.8869e-05	-1.79047e-05	-1.69495e-05	-1.586e-05	-1.45721e-05	-1.31104e-05	-1.1261e-05	-8.57849e-06
0.10498	-2.117e-05	-1.85547e-05	-1.76788e-05	-1.68152e-05	-1.58844e-05	-1.49017e-05	-1.37512e-05	-1.24084e-05	-1.06873e-05	-8.18787e-06
0.12204	-1.98059e-05	-1.72882e-05	-1.65192e-05	-1.56464e-05	-1.48254e-05	-1.39648e-05	-1.29181e-05	-1.1673e-05	-1.01227e-05	-7.79419e-06
0.13913	-1.83014e-05	-1.59393e-05	-1.52435e-05	-1.45172e-05	-1.38184e-05	-1.29639e-05	-1.20392e-05	-1.09131e-05	-9.49402e-06	-7.35779e-06
0.156281	-1.68182e-05	-1.45905e-05	-1.39038e-05	-1.3324e-05	-1.26312e-05	-1.19263e-05	-1.10901e-05	-1.00677e-05	-8.79822e-06	-6.87866e-06
0.173248	-1.50787e-05	-1.30341e-05	-1.24084e-05	-1.19202e-05	-1.1319e-05	-1.07147e-05	-9.96704e-06	-9.1095e-06	-7.97424e-06	-6.25e-06
0.190308	-1.30463e-05	-1.11908e-05	-1.06812e-05	-1.02081e-05	-9.78394e-06	-9.21326e-06	-8.64258e-06	-7.89795e-06	-6.93054e-06	-5.45654e-06
0.207397	-1.06781e-05	-8.88672e-06	-8.54492e-06	-8.12378e-06	-7.724e-06	-7.34558e-06	-6.88782e-06	-6.26831e-06	-5.50232e-06	-4.31519e-06
0.224426	-7.55005e-06	-5.96619e-06	-5.62134e-06	-5.35278e-06	-5.0293e-06	-4.73938e-06	-4.41284e-06	-3.95813e-06	-3.44543e-06	-2.62146e-06
0.241486	-3.0426e-06	-1.65405e-06	-1.45569e-06	-1.22986e-06	-1.08032e-06	-9.49097e-07	-7.75146e-07	-5.64575e-07	-3.479e-07	-9.15527e-09
0.258636	3.10364e-06	4.48608e-06	4.5166e-06	4.59595e-06	4.60205e-06	4.55933e-06	4.50745e-06	4.46167e-06	4.29688e-06	3.96729e-06
0.275574	1.1673e-05	1.29364e-05	1.29059e-05	1.28448e-05	1.26373e-05	1.24512e-05	1.2088e-05	1.16699e-05	1.10107e-05	9.77173e-06
0.292694	2.31781e-05	2.4408e-05	2.42615e-05	2.39807e-05	2.36023e-05	2.30103e-05	2.23633e-05	2.14264e-05	2.00623e-05	1.75995e-05
0.309723	3.75641e-05	3.88672e-05	3.85437e-05	3.79639e-05	3.72101e-05	3.63159e-05	3.51135e-05	3.3551e-05	3.1189e-05	2.70355e-05
0.326843	5.42297e-05	5.55115e-05	5.48706e-05	5.39551e-05	5.27954e-05	5.13306e-05	4.94354e-05	4.69543e-05	4.32983e-05	3.69263e-05
0.343964	7.15332e-05	7.28455e-05	7.17773e-05	7.03125E-05	6.8573e-05	6.63757e-05	6.35986e-05	5.9967e-05	5.46265e-05	4.55597e-05
0.361084	8.77686e-05	8.90503e-05	8.74634e-05	8.53882e-05	8.28247e-05	7.97119e-05	7.58057e-05	7.07397e-05	6.35376e-05	5.16357e-05
0.378052	0.000101715	0.000102661	0.000100403	9.75952e-05	9.41772e-05	9.00269e-05	8.49304e-05	7.83997e-05	6.92139e-05	5.4657e-05
0.395203	0.000112305	0.000113037	0.000109955	0.000106293	0.000101959	9.68018e-05	9.05457e-05	8.26111e-05	7.18079e-05	5.52368e-05
0.412292	0.000119507	0.00011969	0.000115967	0.000111633	0.000106445	0.000100403	9.31396e-05	8.40149e-05	7.20215e-05	5.41077e-05
0.42926	0.000123779	0.000123413	0.000119232	0.000114197	0.000108337	0.000101532	9.34448e-05	8.35571e-05	7.07092e-05	5.21545e-05
0.44632	0.000125702	0.000125061	0.000120392	0.000114777	0.000108368	0.000100983	9.23462e-05	8.19702e-05	6.8634e-05	4.98657e-05
0.463379	0.000126251	0.000125122	0.000119934	0.000113983	0.000107208	9.94263e-05	9.04846e-05	7.97119e-05	6.62231e-05	4.7522e-05
0.480499	0.000125458	0.000124084	0.000118622	0.000112366	0.000105286	9.729e-05	8.81042e-05	7.724e-05	6.37207e-05	4.53064e-05
0.497559	0.000123993	0.000122406	0.000116699	0.000110229	0.000102936	9.48486e-05	8.56018e-05	7.46765e-05	6.12793e-05	4.32495e-05
0.514648	0.000122009	0.0001203	0.00011438	0.000107849	0.000100494	9.23157e-05	8.30078e-05	7.21741e-05	5.896e-05	4.13574e-05
0.531708	0.00011972	0.000117889	0.000111847	0.000105286	9.79004e-05	8.96912e-05	8.04443e-05	6.97327e-05	5.67627e-05	3.9624e-05
0.548737	0.000117126	0.000115234	0.000109283	0.000102692	9.53369e-05	8.71582e-05	7.79724e-05	6.74133e-05	5.4718e-05	3.80432e-05
0.565765	0.000114532	0.000112549	0.000106659	9.99756e-05	9.27429e-05	8.46558e-05	7.56226e-05	6.52466e-05	5.27954e-05	3.65784e-05
0.582855	0.000111847	0.000109955	0.000104004	9.74121e-05	9.021e-05	8.22449e-05	7.33337e-05	6.31409e-05	5.10254e-05	3.52539e-05
0.599915	0.000109161	0.0001073	0.00010144	9.49097e-05	8.77686e-05	7.99561e-05	7.1167e-05	6.11877e-05	4.93317e-05	3.40088e-05
0.616974	0.000106598	0.000104767	9.89685e-05	9.23767e-05	8.54187e-05	7.76672e-05	6.91223e-05	5.93567e-05	4.77722e-05	3.28888e-05
0.634064	0.000103973	0.000102356	9.64355e-05	9.00879e-05	8.31909e-05	7.5592e-05	6.71692e-05	5.76172e-05	4.63013e-05	3.18359e-05
0.651215	0.000101501	9.9823e-05	9.40247e-05	8.77991e-05	8.10242e-05	7.35779e-05	6.53687e-05	5.59998e-05	4.49738e-05	3.08685e-05
0.668304	9.90295e-05	9.73511e-05	9.18274e-05	8.56628e-05	7.89795e-05	7.16248e-05	6.36292e-05	5.44739e-05	4.37103e-05	2.99591e-05
0.685425	9.67102e-05	9.51538e-05	8.97217e-05	8.36182e-05	7.70264e-05	6.99158e-05	6.20117e-05	5.30396e-05	4.24927e-05	2.9126e-05
0.702545	9.4574e-05	9.30176e-05	8.7616e-05	8.16345e-05	7.51953e-05	6.82068e-05	6.04248e-05	5.16663e-05	4.1394e-05	2.83356e-05
0.719604	9.23157e-05	9.09119e-05	8.56323e-05	7.97729e-05	7.34863e-05	6.66199e-05	5.89905e-05	5.03845e-05	4.03564e-05	2.76031e-05
0.736786	9.02405e-05	8.89893e-05	8.37402e-05	7.80029e-05	7.17773e-05	6.5033e-05	5.75867e-05	4.91821e-05	3.93555e-05	2.69257e-05
0.753784	8.83789e-05	8.70972e-05	8.19092e-05	7.62939e-05	7.02515e-05	6.35681e-05	5.62744e-05	4.8053e-05	3.84308e-05	2.62817e-05
0.770874	8.65479e-05	8.53577e-05	8.02307e-05	7.47681e-05	6.87256e-05	6.22253e-05	5.50537e-05	4.70032e-05	3.75854e-05	2.56805e-05
0.787964	8.48083e-05	8.36182e-05	7.86133e-05	7.32117e-05	6.73218e-05	6.09436e-05	5.3894e-05	4.59869e-05	3.67798e-05	2.51129e-05
0.795593	8.09631e-05	7.9834e-05	7.52563e-05	7.00684e-05	6.45142e-05	5.84412e-05	5.17883e-05	4.42352e-05	3.54492e-05	2.42737e-05
0.779114	7.56531e-05	7.49512e-05	7.07092e-05	6.59485e-05	6.07605e-05	5.52063e-05	4.90021e-05	4.198e-05	3.37494e-05	2.32513e-05
0.761414	7.18079e-05	7.13196e-05	6.73828e-05	6.29272e-05	5.8075e-05	5.27954e-05	4.69574e-05	4.03198e-05	3.25073e-05	2.24823e-05
0.74408	6.87256e-05	6.83594e-05	6.45447e-05	6.03638e-05	5.58472e-05	5.08118e-05	4.5224e-05	3.89008e-05	3.14453e-05	2.17957e-05
0.726929	6.61316e-05	6.56738e-05	6.21338e-05	5.8136e-05	5.37415e-05	4.8999e-05	4.36951e-05	3.76404e-05	3.046875E-05	2.11792e-05
0.7099	6.35986e-05	6.32935e-05	5.98755e-05	5.60608e-05	5.19104e-05	4.73358e-05	4.23065e-05	3.64868e-05	2.95746e-05	2.06024e-05
0.69278	6.11267e-05	6.09436e-05	5.78003e-05	5.41687e-05	5.01709e-05	4.58069e-05	4.09943e-05	3.53729e-05	2.87415e-05	2.00684e-05
0.675629	5.88684e-05	5.88684e-05	5.58167e-05	5.23071e-05	4.85413e-05	4.43878e-05	3.96942e-05	3.43475e-05	2.7948e-05	1.95618e-05
0.658508	5.67932e-05	5.67932e-05	5.38635e-05	5.05981e-05	4.69513e-05	4.29718e-05	3.84949e-05	3.33313e-05	2.7179e-05	1.90704e-05
0.641357	5.47485e-05	5.48401e-05	5.2002e-05	4.88861e-05	4.54498e-05	4.16046e-05	3.73322e-05	3.23853e-05	2.64404e-05	1.85944e-05
0.624237	5.27649e-05	5.2948e-05	5.02319e-05	4.72382e-05	4.39514e-05	4.03229e-05	3.62244e-05	3.14636e-05	2.57172e-05	1.81244e-05
0.607239	5.06897e-05	5.09033e-05	4.84619e-05	4.56512e-05	4.25049e-05	3.90015e-05	3.50616e-05	3.04932e-05	2.5E-05	1.76788e-05
0.590179	4.88556e-05	4.9115e-05	4.67468e-05	4.40277e-05	4.10522e-05	3.77045e-05	3.39813e-05	2.95746e-05	2.42828e-05	1.7218e-05
0.57312	4.69147e-05	4.72961e-05	4.49707e-05	4.245e-05	3.95813e-05	3.64166e-05	3.28308e-05	2.8653e-05	2.35596e-05	1.67694e-05
0.556061	4.48944e-05	4.53186e-05	4.31732e-05	4.08142e-05	3.81042e-05	3.51074e-05	3.1665e-05	2.77039e-05	2.28424e-05	1.62994e-05
0.538971	4.30145e-05	4.33716e-05	4.14246e-05	3.91022e-05	3.6615e-05	3.37433e-05	3.05389e-05	2.67273e-05	2.20947e-05	1.58295e-05
0.521942	4.08539e-05	4.13727e-05	3.94958e-05	3.7442e-05	3.50067e-05	3.23425e-05	2.93304e-05	2.57324e-05	2.13318e-05	1.53381e-05
0.504822	3.88519e-05	3.93005e-05	3.76038e-05	3.5675e-05	3.34412e-05	3.09509e-05	2.80853e-05	2.46857e-05	2.05383e-05	1.48346e-05
0.487732	3.65814e-05	3.71826e-05	3.55896e-05	3.38196e-05	3.16803e-05	2.93793e-05	2.67151e-05	2.35992e-05	1.96686e-05	1.42761e-05
0.470734	3.41705e-05	3.47839e-05	3.349e-05	3.17932e-05	2.98828e-05	2.77527e-05	2.52533e-05	2.23602e-05	1.87012e-05	1.36688e-05
0.453613	3.16101e-05	3.21747e-05	3.10211e-05	2.95563e-05	2.77802e-05	2.58942e-05	2.3642e-05	2.09473e-05	1.76025e-05	1.29333e-05
0.436584	2.87994e-05	2.92877e-05	2.82257e-05	2.69318e-05	2.54547e-05	2.37e-05	2.17133e-05	1.92993e-05	1.62933e-05	1.203e-05
0.419525	2.51465e-05	2.59644e-05	2.49542e-05	2.388e-05	2.25281e-05	2.10449e-05	1.92993e-05	1.72241e-05	1.45691e-05	1.08063e-05
0.402496	2.099e-05	2.16614e-05	2.09503e-05	2.00256e-05	1.89514e-05	1.77032e-05	1.62354e-05	1.45142e-05	1.22406e-05	9.08508e-06
0.385345	1.56799e-05	1.6394e-05	1.57471e-05	1.50787e-05	1.42517e-05	1.32629e-05	1.21674e-05	1.08002e-05	9.05762e-06	6.61011e-06
0.368317	8.88062e-06	9.7229e-06	9.31091e-06	8.79517e-06	8.20007e-06	7.53174e-06	6.75964e-06	5.82886e-06	4.65698e-06	3.05176e-06
0.351227	7.44629e-07	1.45569e-06	1.14441e-06	9.3689e-07	5.98145e-07	2.16675e-07	-2.22778e-07	-6.98853e-07	-1.23291e-06	-1.85242e-06
0.334198	-8.9325e-06	-8.36792e-06	-8.42896e-06	-8.43506e-06	-8.53882e-06	-8.65479e-06	-8.6792e-06	-8.70361e-06	-8.62122e-06	-8.15125e-06
0.317139	-1.96777e-05	-1.91101e-05	-1.89667e-05	-1.88538e-05	-1.87073e-05	-1.85364e-05	-1.82159e-05	-1.78009e-05	-1.70471e-05	-1.54358e-05
0.300018	-3.06976e-05	-3.01697e-05	-2.98828e-05	-2.96143e-05	-2.91382e-05	-2.87201e-05	-2.80792e-05	-2.7182e-05	-2.57324e-05	-2.29431e-05
0.28302	-4.14185e-05	-4.06891e-05	-4.02374e-05	-3.96759e-05	-3.90717e-05	-3.83118e-05	-3.73077e-05	-3.58673e-05	-3.36761e-05	-2.95685e-05
0.26593	-5.08728e-05	-5.00183e-05	-4.93408e-05	-4.85718e-05	-4.76624e-05	-4.65607e-05	-4.50897e-05	-4.30847e-05	-4.01184e-05	-3.46497e-05
0.24881	-5.88684e-05	-5.77698e-05	-5.68848e-05	-5.58472e-05	-5.4657e-05	-5.31311e-05	-5.1178e-05	-4.8584e-05	-4.47113e-05	-3.78815e-05
0.23175	-6.54907e-05	-6.39343e-05	-6.28662e-05	-6.1554e-05	-5.99365e-05	-5.80444e-05	-5.5603e-05	-5.23376e-05	-4.76044e-05	-3.94958e-05
0.214691	-7.06177e-05	-6.88782e-05	-6.73523e-05	-6.57349e-05	-6.37817e-05	-6.14014e-05	-5.85022e-05	-5.4657e-05	-4.9115e-05	-3.98956e-05
0.197632	-7.48596e-05	-7.23877e-05	-7.07397e-05	-6.87256e-05	-6.640625E-05	-6.36292e-05	-6.02417e-05	-5.58472e-05	-4.95789e-05	-3.95172e-05
0.180634	-7.78503e-05	-7.51648e-05	-7.31201e-05	-7.08008e-05	-6.81458e-05	-6.49719e-05	-6.11267e-05	-5.61829e-05	-4.9411e-05	-3.8678e-05
0.163513	-8.02307e-05	-7.7179e-05	-7.4707e-05	-7.2113e-05	-6.91223e-05	-6.56433e-05	-6.13708e-05	-5.60608e-05	-4.87976e-05	-3.75885e-05
0.146454	-8.20618e-05	-7.84302e-05	-7.56836e-05	-7.29065e-05	-6.96411e-05	-6.58569e-05	-6.12488e-05	-5.5542e-05	-4.79218e-05	-3.64014e-05
0.129364	-8.32825e-05	-7.91016e-05	-7.63245e-05	-7.32422e-05	-6.97021e-05	-6.55823e-05	-6.07605e-05	-5.47791e-05	-4.68597e-05	-3.515625E-05
0.112335	-8.40759e-05	-7.95593e-05	-7.65381e-05	-7.31201e-05	-6.93665e-05	-6.5094e-05	-6.00281e-05	-5.38025e-05	-4.57062e-05	-3.39233e-05
0.0953064	-8.44116e-05	-7.95593e-05	-7.62634e-05	-7.27539e-05	-6.87866e-05	-6.43005e-05	-5.91125e-05	-5.27039e-05	-4.44855e-05	-3.27026e-05
0.0781555	-8.42896e-05	-7.92542e-05	-7.59277e-05	-7.20825e-05	-6.80542e-05	-6.3385e-05	-5.80139e-05	-5.15137e-05	-4.32281e-05	-3.15308e-05
0.0611267	-8.39844e-05	-7.87048e-05	-7.51343e-05	-7.1228e-05	-6.70776e-05	-6.23169e-05	-5.67932e-05	-5.02319e-05	-4.19586e-05	-3.03802e-05
0.0440643	-8.34656e-05	-7.78503e-05	-7.41272e-05	-7.0282e-05	-6.59485e-05	-6.10962e-05	-5.5542e-05	-4.89227e-05	-4.07135e-05	-2.92877e-05
0.027002	-8.26111e-05	-7.69043e-05	-7.31201e-05	-6.90918e-05	-6.46973e-05	-5.97839e-05	-5.42297e-05	-4.76196e-05	-3.94806e-05	-2.8244e-05
0.00991211	-8.1665e-05	-7.57446e-05	-7.18384e-05	-6.77795e-05	-6.3385e-05	-5.84412e-05	-5.2887e-05	-4.63165e-05	-3.82507e-05	-2.72522e-05
-0.00717163	-8.05969e-05	-7.44934e-05	-7.05872e-05	-6.64673e-05	-6.20422e-05	-5.70984e-05	-5.15137e-05	-4.50195e-05	-3.70605e-05	-2.63031e-05
-0.0242828	-7.93152e-05	-7.30896e-05	-6.92139e-05	-6.50635e-05	-6.06384e-05	-5.56946e-05	-5.02014e-05	-4.37225e-05	-3.59222e-05	-2.54059e-05
-0.0413696	-7.80029e-05	-7.16248e-05	-6.77795e-05	-6.35986e-05	-5.91736e-05	-5.42908e-05	-4.88037e-05	-4.24622e-05	-3.48053e-05	-2.45483e-05
-0.05859375	-7.66602e-05	-7.01904e-05	-6.63147e-05	-6.22253e-05	-5.77087e-05	-5.29175e-05	-4.74976e-05	-4.12689e-05	-3.37463e-05	-2.37335e-05
-0.0756836	-7.51038e-05	-6.87561e-05	-6.47583e-05	-6.06689e-05	-5.63354e-05	-5.15747e-05	-4.62189e-05	-4.00818e-05	-3.27209e-05	-2.29797e-05
-0.092804	-7.35779e-05	-6.72913e-05	-6.32629e-05	-5.92651e-05	-5.49316e-05	-5.02319e-05	-4.49371e-05	-3.89526e-05	-3.17413e-05	-2.22443e-05
-0.109924	-7.21436e-05	-6.57654e-05	-6.18591e-05	-5.78003e-05	-5.35583e-05	-4.89075e-05	-4.37225e-05	-3.78418e-05	-3.08044e-05	-2.15546e-05
-0.127075	-7.07092e-05	-6.43005e-05	-6.04248e-05	-5.6427e-05	-5.22156e-05	-4.76044e-05	-4.25476e-05	-3.67645e-05	-2.99072e-05	-2.08954e-05
-0.144226	-6.92749e-05	-6.28357e-05	-5.89905e-05	-5.50232e-05	-5.08728e-05	-4.63562e-05	-4.14337e-05	-3.57605e-05	-2.90558e-05	-2.0282e-05
-0.161224	-6.7749e-05	-6.13708e-05	-5.75867e-05	-5.37415e-05	-4.9588e-05	-4.52057e-05	-4.02985e-05	-3.479e-05	-2.8244e-05	-1.96869e-05
-0.178375	-6.63452e-05	-5.9967e-05	-5.62439e-05	-5.23987e-05	-4.84131e-05	-4.40399e-05	-3.927e-05	-3.38745e-05	-2.7478e-05	-1.91437e-05
-0.195526	-6.50024e-05	-5.86548e-05	-5.49316e-05	-5.1178e-05	-4.72046e-05	-4.296875E-05	-3.82965e-05	-3.29773e-05	-2.67242e-05	-1.86127e-05
-0.188202	-5.95398e-05	-5.3833e-05	-5.04456e-05	-4.70367e-05	-4.34662e-05	-3.9624e-05	-3.53851e-05	-3.06183e-05	-2.49176e-05	-1.74835e-05
-0.17099	-5.53589e-05	-4.96674e-05	-4.68506e-05	-4.36218e-05	-4.04266e-05	-3.69904e-05	-3.31085e-05	-2.87231e-05	-2.34863e-05	-1.65771e-05
-0.153992	-5.19104e-05	-4.66553e-05	-4.39301e-05	-4.10339e-05	-3.81104e-05	-3.48694e-05	-3.12744e-05	-2.71851e-05	-2.22961e-05	-1.58173e-05
-0.13681	-4.8938e-05	-4.40582e-05	-4.14398e-05	-3.88428e-05	-3.60199e-05	-3.29681e-05	-2.96509e-05	-2.5824e-05	-2.12585e-05	-1.51642e-05
-0.119659	-4.62921e-05	-4.1629e-05	-3.91937e-05	-3.67371e-05	-3.414e-05	-3.13141e-05	-2.82227e-05	-2.46429e-05	-2.03278e-05	-1.4566e-05
-0.102539	-4.39209e-05	-3.95233e-05	-3.72253e-05	-3.49091e-05	-3.25073e-05	-2.98431e-05	-2.69073e-05	-2.35535e-05	-1.95007e-05	-1.40198e-05
-0.0855103	-4.17175e-05	-3.74908e-05	-3.53394e-05	-3.3197e-05	-3.09601e-05	-2.84058e-05	-2.5705e-05	-2.25494e-05	-1.8692e-05	-1.34918e-05
-0.0683289	-3.96484e-05	-3.56293e-05	-3.36243e-05	-3.15826e-05	-2.95044e-05	-2.71637e-05	-2.45453e-05	-2.16034e-05	-1.79474e-05	-1.30157e-05
-0.0512085	-3.76526e-05	-3.39081e-05	-3.20435e-05	-3.01147e-05	-2.81403e-05	-2.59308e-05	-2.34741e-05	-2.06818e-05	-1.72485e-05	-1.25427e-05
-0.0340485	-3.58673e-05	-3.21655e-05	-3.0423e-05	-2.86133e-05	-2.67944e-05	-2.47406e-05	-2.24579e-05	-1.98303e-05	-1.6571e-05	-1.21033e-05
-0.0169189	-3.39417e-05	-3.05817e-05	-2.901e-05	-2.72919e-05	-2.55859e-05	-2.36328e-05	-2.14874e-05	-1.90063e-05	-1.5921e-05	-1.16669e-05
0.00017395	-3.24036e-05	-2.89978e-05	-2.7536e-05	-2.59521e-05	-2.43469e-05	-2.25464e-05	-2.05322e-05	-1.81824e-05	-1.5274e-05	-1.12518e-05
0.005078125	-3.19153e-05	-2.8537e-05	-2.71484e-05	-2.55646e-05	-2.39746e-05	-2.22351e-05	-2.02637e-05	-1.79443e-05	-1.5097e-05	-1.11206e-05