File: Test-CV-with_Porous-ITO.txt
WE(1).Potential (V)	WE(1).Current (A)	WE(1).Current (A)	WE(1).Current (A)	WE(1).Current (A)	WE(1).Current (A)	WE(1).Current (A)	WE(1).Current (A)	WE(1).Current (A)	WE(1).Current (A)	WE(1).Current (A)	WE(1).Current (A)	WE(1).Current (A)	WE(1).Current (A)	WE(1).Current (A)	WE(1).Current (A)	WE(1).Current (A)	WE(1).Current (A)	WE(1).Current (A)	WE(1).Current (A)	WE(1).Current (A)	WE(1).Current (A)
-0.197998	-0.00219025	-0.00203857	-0.00199036	-0.00193054	-0.00186279	-0.00177734	-0.00166962	-0.00152771	-0.00132019	-0.00116882	-0.000950623	-0.000830688	-0.00067749	-0.000585327	-0.0003526	-0.000223083	-8.77991e-05	-3.84186e-05	-2.4765e-05	-1.82709e-05	-1.10229e-05
-0.163757	-0.00113098	-0.000778809	-0.000723572	-0.000660095	-0.000588074	-0.00050354	-0.000404053	-0.00028656	-0.000149414	-7.93152e-05	-1.81519e-05	-1.96838e-06	7.67822e-06	8.78296e-06	6.04553e-06	1.31226e-06	-3.29895e-06	-4.44946e-06	-3.96118e-06	-3.35083e-06	-2.58789e-06
-0.129456	-0.000562134	-0.000274536	-0.000233154	-0.000187408	-0.000137878	-8.46252e-05	-2.92175e-05	2.39441e-05	6.29883e-05	6.90002e-05	5.99976e-05	5.09644e-05	3.92456e-05	3.24524e-05	1.75293e-05	9.20105e-06	1.37634e-06	-1.39465e-06	-1.70593e-06	-1.58691e-06	-1.44653e-06
-0.0952759	-0.000193176	3.08014e-05	5.56946e-05	8.10242e-05	0.000105194	0.000126984	0.000142883	0.000147156	0.000129639	0.000108398	7.74231e-05	6.25305e-05	4.65729e-05	3.8324e-05	2.09778e-05	1.17584e-05	3.0304e-06	-1.98364e-07	-7.56836e-07	-8.08716e-07	-8.81958e-07
-0.0610352	6.28357e-05	0.000231506	0.000240082	0.000245941	0.000247803	0.000243561	0.000230133	0.000202698	0.000154907	0.000121857	8.30994e-05	6.63757e-05	4.91333e-05	4.04327e-05	2.21985e-05	1.26678e-05	3.68347e-06	3.35693e-07	-3.05176e-07	-4.02832e-07	-5.67627e-07
-0.026651	0.000249268	0.000366638	0.00036084	0.000350433	0.000334381	0.00031076	0.0002771	0.000229675	0.000165436	0.000126953	8.5083e-05	6.77185e-05	4.99268e-05	4.10248e-05	2.25067e-05	1.28632e-05	3.88489e-06	5.49316e-07	-9.15527e-08	-2.19727e-07	-3.93677e-07
0.00757141	0.000382599	0.000461121	0.000443451	0.000420135	0.000390381	0.000352478	0.000304413	0.000243958	0.000170074	0.000128967	8.56628e-05	6.79626e-05	4.99878e-05	4.0979e-05	2.2403e-05	1.27686e-05	3.89404e-06	6.37817e-07	-3.05176e-09	-1.15967e-07	-2.99072e-07
0.0417328	0.000475922	0.000533447	0.000505371	0.000470947	0.000429779	0.000380066	0.00032074	0.000251007	0.000171631	0.000129303	8.55408e-05	6.77185e-05	4.97437e-05	4.07135e-05	2.21588e-05	1.26038e-05	3.81775e-06	6.74438e-07	4.27246e-08	-7.32422e-08	-2.65503e-07
0.0756836	0.000543213	0.000589294	0.000551758	0.000507202	0.000455566	0.000396545	0.000329224	0.000253998	0.000171997	0.000129272	8.53882e-05	6.76575e-05	4.95911e-05	4.05487e-05	2.20367e-05	1.25122e-05	3.84521e-06	7.08008e-07	8.54492e-08	-7.01904e-08	-2.2583e-07
0.109833	0.000594482	0.000628662	0.000582581	0.000530396	0.000471375	0.000405762	0.000333496	0.00025528	0.00017215	0.000129395	8.56323e-05	6.78711e-05	4.98352e-05	4.07745e-05	2.22412e-05	1.27045e-05	3.98865e-06	8.39233e-07	1.70898e-07	-3.05176e-09	-1.89209e-07
0.14386	0.000639343	0.000656738	0.000604248	0.000545654	0.000481537	0.000411652	0.000336487	0.000256775	0.000173492	0.000130859	8.72498e-05	6.94885e-05	5.13611e-05	4.22363e-05	2.34283e-05	1.35864e-05	4.53491e-06	1.12305e-06	3.23486e-07	1.12915e-07	-1.34277e-07
0.178101	0.000675964	0.00067749	0.000620728	0.000557861	0.000490234	0.000418091	0.000341614	0.00026178	0.00017923	0.000136963	9.32312e-05	7.51648e-05	5.65186e-05	4.69299e-05	2.70294e-05	1.63147e-05	6.06689e-06	1.88904e-06	7.78198e-07	3.66211e-07	3.05176e-08
0.212189	0.000706177	0.000697937	0.000638123	0.000573425	0.000504456	0.000431366	0.000355682	0.000277405	0.000196594	0.00015451	0.000109955	9.08813e-05	7.07092e-05	6.00586e-05	3.71338e-05	2.41028e-05	1.06415e-05	4.31824e-06	2.18506e-06	1.29089e-06	5.00488e-07
0.246338	0.000741272	0.000727844	0.000667419	0.000602722	0.000534668	0.000463867	0.000391022	0.000316254	0.000237701	0.00019516	0.000147919	0.000126495	0.000102966	8.98132e-05	6.05469e-05	4.25323e-05	2.22443e-05	1.09314e-05	6.30188e-06	3.98865e-06	1.94397e-06
0.280457	0.000794678	0.000779724	0.000720825	0.000658569	0.000594177	0.000527649	0.000459167	0.000387787	0.000309204	0.000263489	0.000209595	0.000183563	0.000153778	0.000136505	9.66797e-05	7.08923e-05	4.02008e-05	2.17285e-05	1.34644e-05	9.12476e-06	4.90723e-06
0.314545	0.000876465	0.000861511	0.000805969	0.000747681	0.000687256	0.000624084	0.000557861	0.000484863	0.000398499	0.000344543	0.000277405	0.000243378	0.000203552	0.000179871	0.000124847	8.95691e-05	4.89136e-05	2.62482e-05	1.67358e-05	1.18622e-05	6.98853e-06
0.348724	0.000986328	0.000970459	0.000917053	0.000860291	0.000800476	0.000735779	0.000664673	0.00058197	0.000476227	0.00040686	0.0003172	0.000271179	0.000217407	0.000186066	0.000116516	7.67517e-05	3.83606e-05	2.07642e-05	1.38245e-05	1.02478e-05	6.48193e-06
0.382843	0.00111023	0.0010907	0.00103577	0.000975647	0.000909729	0.000836182	0.000751343	0.000648499	0.00051239	0.000420593	0.000303741	0.000246368	0.000182739	0.000148254	8.18787e-05	5.23682e-05	2.72827e-05	1.56677e-05	1.08765e-05	8.31299e-06	5.39246e-06
0.417023	0.00122772	0.00120026	0.00113861	0.00106964	0.000992126	0.00090332	0.000798645	0.00066925	0.000497131	0.000385193	0.000250916	0.000190765	0.000131897	0.000104675	5.98145e-05	4.00574e-05	2.17651e-05	1.28296e-05	9.07593e-06	6.97021e-06	4.55933e-06
0.45108	0.00131897	0.00128296	0.00121094	0.00112946	0.00103729	0.000930481	0.000803528	0.000647278	0.000446106	0.000323151	0.0001922	0.000143524	0.000101746	8.3252e-05	5.03845e-05	3.43018e-05	1.88202e-05	1.12091e-05	7.94983e-06	6.10352e-06	4.00696e-06
0.48526	0.00137878	0.00133514	0.00125153	0.00115631	0.00104797	0.000922546	0.000774841	0.000596924	0.000379425	0.000261566	0.000155365	0.000119751	8.82568e-05	7.33948e-05	4.53094e-05	3.09357e-05	1.69952e-05	1.0141e-05	7.2113e-06	5.51147e-06	3.6438e-06
0.519348	0.00141083	0.00135956	0.00126312	0.00115356	0.00102997	0.000888062	0.000723572	0.000530701	0.000319092	0.000219635	0.000136627	0.000107788	8.08105e-05	6.76575e-05	4.20563e-05	2.87323e-05	1.57715e-05	9.45435e-06	6.70166e-06	5.12085e-06	3.42407e-06
0.553528	0.00141907	0.00135895	0.00125	0.00112762	0.000990601	0.000834656	0.000658264	0.000465973	0.000276764	0.000195404	0.000125977	0.000100555	7.60498e-05	6.38123e-05	3.97949e-05	2.72034e-05	1.49445e-05	8.984375E-06	6.40259e-06	4.91333e-06	3.34473e-06
0.587585	0.00140503	0.00133698	0.00121674	0.00108337	0.000934143	0.000769958	0.000593567	0.000412933	0.000249786	0.00018042	0.000118805	9.53369e-05	7.24182e-05	6.09131e-05	3.80707e-05	2.60559e-05	1.44073e-05	8.74023e-06	6.26221e-06	4.8645e-06	3.36609e-06
0.621735	0.0013736	0.00129791	0.00116791	0.00102478	0.000870056	0.000705872	0.000536804	0.000373901	0.000231812	0.000170166	0.000113464	9.13696e-05	6.95496e-05	5.85632e-05	3.67035e-05	2.51801e-05	1.40503e-05	8.68835e-06	6.30493e-06	4.89502e-06	3.43933e-06
0.655914	0.00132751	0.00124542	0.0011087	0.000962219	0.0008078	0.000648804	0.00049173	0.000346191	0.000219208	0.000162537	0.000109222	8.82263e-05	6.73218e-05	5.67932e-05	3.57178e-05	2.46582e-05	1.39862e-05	8.81042e-06	6.43616e-06	5.00793e-06	3.51257e-06
0.690155	0.00127167	0.0011853	0.00104645	0.000900574	0.000750732	0.000600891	0.000456696	0.000325256	0.000209351	0.000156525	0.000105927	8.57239e-05	6.56738e-05	5.54504e-05	3.5199e-05	2.45209e-05	1.42242e-05	9.08508e-06	6.59485e-06	5.08423e-06	3.53394e-06
0.724426	0.00121277	0.00112427	0.000986633	0.000844116	0.000700989	0.000561523	0.000429413	0.000309235	0.000201904	0.000151917	0.000103516	8.40759e-05	6.46667e-05	5.48096e-05	3.52203e-05	2.48047e-05	1.46301e-05	9.28345e-06	6.67725e-06	5.10864e-06	3.57056e-06
0.759277	0.00115417	0.00106476	0.000930176	0.000793762	0.00065918	0.00052948	0.000407715	0.000296814	0.00019635	0.000148712	0.000102203	8.33435e-05	6.44531e-05	5.48096e-05	3.55621e-05	2.51892e-05	1.48651e-05	9.38416e-06	6.74133e-06	5.15137e-06	3.60107e-06
0.792847	0.00110046	0.00101074	0.000881348	0.000751343	0.000625	0.00050415	0.000391327	0.000287933	0.000192993	0.000147034	0.000101837	8.31909e-05	6.46057e-05	5.50232e-05	3.59131e-05	2.54974e-05	1.50635e-05	9.52759e-06	6.86035e-06	5.26733e-06	3.69263e-06
0.773315	0.000670166	0.000592041	0.000483429	0.0003797	0.000283173	0.000196625	0.000122681	6.43921e-05	2.50763e-05	1.36017e-05	9.39026e-06	9.15222e-06	9.98535e-06	1.03546e-05	1.14899e-05	1.14136e-05	9.68628e-06	7.16553e-06	5.41687e-06	4.245e-06	3.07007e-06
0.739197	0.000360443	0.000300262	0.000219696	0.000146423	8.31299e-05	3.21198e-05	-3.78723e-06	-2.23175e-05	-2.22137e-05	-1.61102e-05	-6.63147e-06	-2.64587e-06	1.52588e-06	3.39355e-06	7.02515e-06	8.21838e-06	7.79724e-06	6.05774e-06	4.63867e-06	3.67737e-06	2.734375E-06
0.704956	0.000155701	0.00011264	5.52979e-05	6.96411e-06	-3.04535e-05	-5.50232e-05	-6.5094e-05	-6.04248e-05	-4.19312e-05	-2.9245e-05	-1.49994e-05	-9.35364e-06	-3.61633e-06	-1.01318e-06	4.10156e-06	6.073e-06	6.50635e-06	5.25513e-06	4.11987e-06	3.302e-06	2.47192e-06
0.670776	9.07898e-06	-1.93787e-05	-5.69763e-05	-8.53577e-05	-0.000102844	-0.000108521	-0.0001015625	-8.28247e-05	-5.45349e-05	-3.83636e-05	-2.109375E-05	-1.42792e-05	-7.50427e-06	-4.3457e-06	1.83411e-06	4.37927e-06	5.49316e-06	4.64478e-06	3.68347e-06	2.96021e-06	2.27051e-06
0.636505	-0.000100281	-0.000116455	-0.000138489	-0.000150879	-0.00015332	-0.000145142	-0.000126526	-9.89075e-05	-6.44226e-05	-4.57092e-05	-2.61505e-05	-1.84601e-05	-1.07605e-05	-7.15027e-06	-1.0376e-07	2.96631e-06	4.63562e-06	4.09851e-06	3.31421e-06	2.69165e-06	2.07825e-06
0.602356	-0.000184753	-0.000190521	-0.000199463	-0.000199554	-0.00019043	-0.000172089	-0.000145477	-0.000111633	-7.27844e-05	-5.2002e-05	-3.04718e-05	-2.20581e-05	-1.36108e-05	-9.61304e-06	-1.79749e-06	1.72119e-06	3.86047e-06	3.6438e-06	2.99072e-06	2.46277e-06	1.92871e-06
0.568237	-0.000252777	-0.00024942	-0.000247742	-0.000237885	-0.000219788	-0.000194153	-0.000161469	-0.000123077	-8.03223e-05	-5.78308e-05	-3.45856e-05	-2.54608e-05	-1.63086e-05	-1.20239e-05	-3.39966e-06	5.34058e-07	3.19519e-06	3.22266e-06	2.70996e-06	2.24915e-06	1.77307e-06
0.534119	-0.000308807	-0.000298126	-0.000287781	-0.000269928	-0.000244812	-0.000213318	-0.000175903	-0.000133759	-8.75854e-05	-6.32629e-05	-3.8385e-05	-2.85919e-05	-1.88171e-05	-1.40991e-05	-4.78821e-06	-4.69971e-07	2.62756e-06	2.90527e-06	2.49023e-06	2.0752e-06	1.66626e-06
0.499939	-0.000356567	-0.000339691	-0.000321991	-0.000297607	-0.000266815	-0.000230469	-0.000189148	-0.000143524	-9.40857e-05	-6.83899e-05	-4.19067e-05	-3.15125e-05	-2.10693e-05	-1.60583e-05	-6.09436e-06	-1.39771e-06	2.10266e-06	2.60315e-06	2.28271e-06	1.94702e-06	1.57166e-06
0.46582	-0.000398346	-0.00037619	-0.000352539	-0.000322571	-0.00028714	-0.000246735	-0.000202026	-0.000153198	-0.000100891	-7.36694e-05	-4.58099e-05	-3.479e-05	-2.37305e-05	-1.83594e-05	-7.66602e-06	-2.50244e-06	1.48315e-06	2.26746e-06	2.06604e-06	1.77002e-06	1.44653e-06
0.431671	-0.000436157	-0.000409698	-0.000380829	-0.000346252	-0.000306915	-0.000263092	-0.00021524	-0.000163727	-0.000108734	-8.02002e-05	-5.09033e-05	-3.91785e-05	-2.73163e-05	-2.15546e-05	-9.88159e-06	-4.13818e-06	6.073e-07	1.80054e-06	1.76392e-06	1.54114e-06	1.31836e-06
0.397552	-0.000472565	-0.000442688	-0.000409454	-0.000371307	-0.000328766	-0.000282104	-0.00023175	-0.000177948	-0.000120514	-9.04846e-05	-5.93262e-05	-4.66675e-05	-3.37097e-05	-2.72705e-05	-1.39343e-05	-7.10449e-06	-1.06812e-06	9.27734e-07	1.19324e-06	1.12305e-06	1.05896e-06
0.363342	-0.000512695	-0.000480133	-0.00044397	-0.000402985	-0.000358063	-0.000309448	-0.000257446	-0.000201965	-0.000142578	-0.000110901	-7.7179e-05	-6.29578e-05	-4.80011e-05	-4.02954e-05	-2.37122e-05	-1.45721e-05	-5.45959e-06	-1.47095e-06	-3.38745e-07	2.74658e-08	3.66211e-07
0.329254	-0.000565491	-0.000531311	-0.000493347	-0.000451202	-0.000405579	-0.000356628	-0.000304413	-0.000248535	-0.000187286	-0.000153351	-0.000115387	-9.84192e-05	-7.98035e-05	-6.95496e-05	-4.64386e-05	-3.24768e-05	-1.67419e-05	-8.06885e-06	-4.66919e-06	-3.11584e-06	-1.53198e-06
0.295044	-0.000643616	-0.000608826	-0.000570984	-0.000529175	-0.000484192	-0.000436066	-0.000384308	-0.000327667	-0.000262848	-0.000224823	-0.000179535	-0.000157593	-0.000132385	-0.00011792	-8.39539e-05	-6.20728e-05	-3.55469e-05	-1.93756e-05	-1.2204e-05	-8.56323e-06	-4.69971e-06
0.261017	-0.000753479	-0.000718384	-0.000680847	-0.000639954	-0.000595093	-0.00054657	-0.000492889	-0.000432709	-0.000359528	-0.000311859	-0.000251465	-0.000221497	-0.000186249	-0.000165527	-0.000116364	-8.43811e-05	-4.65393e-05	-2.46216e-05	-1.52771e-05	-1.05835e-05	-5.93567e-06
0.226898	-0.000891113	-0.000853882	-0.000815125	-0.00077179	-0.000724487	-0.000672913	-0.000614319	-0.000541992	-0.000443024	-0.000378632	-0.000296783	-0.000255493	-0.000206879	-0.000178284	-0.0001138	-7.57446e-05	-3.73352e-05	-1.90704e-05	-1.20392e-05	-8.52051e-06	-5.0415e-06
0.192749	-0.00105072	-0.000999756	-0.000957031	-0.000910034	-0.000856018	-0.000791321	-0.000711365	-0.000611267	-0.000481232	-0.000396759	-0.000289612	-0.000236877	-0.000177887	-0.000145569	-8.1604e-05	-5.13916e-05	-2.53235e-05	-1.35956e-05	-8.96912e-06	-6.56128e-06	-4.02527e-06
0.15863	-0.00118866	-0.00114075	-0.00108612	-0.00102203	-0.000947266	-0.00085907	-0.000755615	-0.000630493	-0.000468658	-0.000364868	-0.000240509	-0.000185181	-0.000129913	-0.000103577	-5.77698e-05	-3.7561e-05	-1.93085e-05	-1.07025e-05	-7.22656e-06	-5.37109e-06	-3.32336e-06
0.124451	-0.00127625	-0.00122894	-0.00115906	-0.00107788	-0.000985718	-0.000880432	-0.000757751	-0.000608826	-0.000419739	-0.000306274	-0.000186249	-0.000140808	-9.97314e-05	-8.11462e-05	-4.74915e-05	-3.15582e-05	-1.64185e-05	-9.15222e-06	-6.2439e-06	-4.63562e-06	-2.86255e-06
0.090271	-0.00133026	-0.00127258	-0.0011908	-0.00109711	-0.000991516	-0.000870056	-0.00072876	-0.000559692	-0.000358582	-0.000251923	-0.000153259	-0.000118469	-8.65479e-05	-7.15942e-05	-4.29901e-05	-2.87506e-05	-1.49353e-05	-8.26416e-06	-5.62439e-06	-4.16565e-06	-2.54517e-06
0.0562134	-0.00136383	-0.0012915	-0.00119843	-0.00109222	-0.0009729	-0.000836487	-0.000679626	-0.000500488	-0.000308655	-0.000218201	-0.000137421	-0.000108215	-8.04443e-05	-6.71692e-05	-4.0799e-05	-2.7356e-05	-1.41113e-05	-7.73926e-06	-5.22766e-06	-3.85437e-06	-2.3468e-06
0.0219574	-0.00137848	-0.00129028	-0.0011853	-0.0010675	-0.000935669	-0.000787354	-0.000623169	-0.00044812	-0.000277649	-0.000200378	-0.000129608	-0.000103241	-7.75452e-05	-6.50635e-05	-3.97949e-05	-2.6712e-05	-1.36993e-05	-7.43713e-06	-4.99573e-06	-3.68347e-06	-2.24609e-06
-0.0122162	-0.00137482	-0.00127319	-0.00115753	-0.00102905	-0.000887756	-0.000734558	-0.000573425	-0.000411652	-0.00026059	-0.000191376	-0.000125946	-0.000101044	-7.6416e-05	-6.44226e-05	-3.95447e-05	-2.66022e-05	-1.36108e-05	-7.35474e-06	-4.91028e-06	-3.65906e-06	-2.2644e-06
-0.0464386	-0.00135223	-0.00124237	-0.00111786	-0.000982971	-0.000838928	-0.000688171	-0.000536499	-0.000389099	-0.000251404	-0.00018689	-0.000124481	-0.000100464	-7.64465e-05	-6.46057e-05	-3.98651e-05	-2.69104e-05	-1.3797e-05	-7.47986e-06	-5.05066e-06	-3.81775e-06	-2.47803e-06
-0.0806274	-0.00131653	-0.001203	-0.00107452	-0.000938416	-0.000796814	-0.000653687	-0.00051239	-0.000376251	-0.000247131	-0.000185364	-0.000124786	-0.000101196	-7.73621e-05	-6.56433e-05	-4.07471e-05	-2.77161e-05	-1.43677e-05	-7.91016e-06	-5.49011e-06	-4.25415e-06	-2.93884e-06
-0.114807	-0.00127686	-0.00116211	-0.00103394	-0.000900574	-0.000765076	-0.000630188	-0.000497742	-0.000369629	-0.000245911	-0.000185883	-0.000126251	-0.000102875	-7.9071e-05	-6.74133e-05	-4.22241e-05	-2.89917e-05	-1.53961e-05	-8.81348e-06	-6.32935e-06	-5.0415e-06	-3.54919e-06
-0.149109	-0.00124115	-0.00112671	-0.00100128	-0.000873108	-0.000743713	-0.00061615	-0.000490387	-0.000367737	-0.000247314	-0.000188232	-0.000129059	-0.000105713	-8.18176e-05	-7.01294e-05	-4.45007e-05	-3.10669e-05	-1.71234e-05	-1.02661e-05	-7.547e-06	-5.98755e-06	-4.11377e-06
-0.183319	-0.00121216	-0.00109985	-0.000978699	-0.000855103	-0.000731812	-0.000609436	-0.000488617	-0.000369446	-0.00025116	-0.000192566	-0.000133331	-0.000109955	-8.58154e-05	-7.40662e-05	-4.7934e-05	-3.42438e-05	-1.96533e-05	-1.20789e-05	-8.73718e-06	-6.72302e-06	-4.43115e-06
-0.183289	-0.000871887	-0.000769653	-0.000662231	-0.000555115	-0.000449036	-0.000346161	-0.000246857	-0.000152649	-6.7749e-05	-3.23364e-05	-5.39856e-06	8.60596e-07	4.0741e-06	3.91541e-06	1.27869e-06	-2.22778e-06	-5.36499e-06	-5.54199e-06	-4.66614e-06	-3.79639e-06	-2.71301e-06
-0.149048	-0.000440491	-0.000358734	-0.00027713	-0.000198608	-0.000124847	-5.75256e-05	1.02844e-06	4.59167e-05	6.82678e-05	6.59485e-05	5.2063e-05	4.30115e-05	3.21686e-05	2.61627e-05	1.30249e-05	5.88379e-06	-4.39453e-07	-2.25525e-06	-2.28882e-06	-2.00195e-06	-1.5625e-06
-0.114838	-0.000151947	-8.8562e-05	-2.99713e-05	2.32239e-05	6.91833e-05	0.000105499	0.000129425	0.000135681	0.000116516	9.56726e-05	6.70776e-05	5.37415e-05	3.94592e-05	3.22021e-05	1.67969e-05	8.77075e-06	1.54114e-06	-8.60596e-07	-1.19934e-06	-1.13525e-06	-9.73511e-07
-0.0805664	5.73425e-05	0.00010434	0.000142303	0.000173065	0.000195221	0.000205963	0.000202087	0.000180328	0.000137695	0.000108002	7.30286e-05	5.8075e-05	4.24469e-05	3.47198e-05	1.84418e-05	1.00586e-05	2.45056e-06	-1.7395e-07	-5.95093e-07	-6.40869e-07	-6.19507e-07
-0.046228	0.000215027	0.000246124	0.000266418	0.00027771	0.000278564	0.000267578	0.000243469	0.000204102	0.000147858	0.000113586	7.5592e-05	5.98755e-05	4.37012e-05	3.57574e-05	1.90582e-05	1.05286e-05	2.82593e-06	1.92261e-07	-3.05176e-07	-3.75366e-07	-3.66211e-07
-0.0119781	0.000335327	0.000352295	0.000354858	0.000348755	0.000332764	0.000306305	0.000268433	0.000217499	0.000153015	0.000116089	7.66602e-05	6.05164e-05	4.41101e-05	3.60138e-05	1.91803e-05	1.0611e-05	2.90833e-06	3.20435e-07	-1.5564e-07	-2.44141e-07	-2.65503e-07
0.0222229	0.0004263	0.000427338	0.000416168	0.000396576	0.000368439	0.000331024	0.000283356	0.000224823	0.000155212	0.000116974	7.67517e-05	6.05164e-05	4.39575e-05	3.58459e-05	1.90125e-05	1.04767e-05	2.87476e-06	3.50952e-07	-1.25122e-07	-1.77002e-07	-2.19727e-07
0.0562439	0.00049176	0.000481537	0.000459656	0.000430298	0.000393005	0.000347443	0.000292816	0.000228973	0.000156281	0.000117218	7.67517e-05	6.03638e-05	4.37927e-05	3.56506e-05	1.88477e-05	1.03546e-05	2.83813e-06	3.479e-07	-1.00708e-07	-1.7395e-07	-1.98364e-07
0.0903625	0.000539551	0.00052124	0.000491455	0.000454681	0.000410431	0.000358765	0.000299103	0.000231598	0.000156891	0.000117493	7.68127e-05	6.04248e-05	4.37775e-05	3.55927e-05	1.8866e-05	1.03821e-05	2.91443e-06	4.18091e-07	-3.05176e-08	-1.46484e-07	-1.92261e-07
0.124481	0.000575562	0.000552063	0.000516357	0.000473633	0.000424011	0.000367523	0.000303925	0.000233887	0.000157867	0.000118195	7.75757e-05	6.11572e-05	4.44977e-05	3.62e-05	1.94061e-05	1.08246e-05	3.20435e-06	5.61523e-07	5.79834e-08	-8.54492e-08	-1.58691e-07
0.1586	0.000605164	0.000578308	0.000538025	0.000490356	0.00043631	0.000375824	0.000309326	0.000237396	0.000161072	0.00012149	8.078e-05	6.41174e-05	4.72076e-05	3.87146e-05	2.13348e-05	1.22925e-05	4.04358e-06	1.01624e-06	3.14331e-07	7.32422e-08	-9.46045e-08
0.19278	0.000632324	0.000604248	0.000559082	0.000507507	0.000449402	0.000386353	0.000318604	0.000246735	0.000171021	0.000131683	9.04846e-05	7.32422e-05	5.54504e-05	4.62189e-05	2.70203e-05	1.66046e-05	6.50635e-06	2.24609e-06	9.8877e-07	5.09644e-07	1.37329e-07
0.226807	0.000664978	0.00063324	0.000585022	0.000530396	0.000471558	0.000408569	0.000341888	0.000272034	0.00019809	0.000158539	0.000115753	9.69543e-05	7.67822e-05	6.5918e-05	4.22333e-05	2.83295e-05	1.35773e-05	6.07605e-06	3.24402e-06	1.97449e-06	8.91113e-07
0.260986	0.000711365	0.00067688	0.000627747	0.000574341	0.000517578	0.000456848	0.000393738	0.000327026	0.000254242	0.000213135	0.000165863	0.000143707	0.000118835	0.000104645	7.25403e-05	5.22156e-05	2.86682e-05	1.492e-05	8.86841e-06	5.78003e-06	2.95105e-06
0.295074	0.000782776	0.000748291	0.000701599	0.000650635	0.000596924	0.000540161	0.000479645	0.000413879	0.000337372	0.000290833	0.000233948	0.00020578	0.000173065	0.000153717	0.000108856	7.96814e-05	4.51019e-05	2.45514e-05	1.54785e-05	1.06812e-05	5.96313e-06
0.329254	0.000885925	0.000851746	0.00080658	0.000757751	0.000705566	0.000648804	0.000586853	0.000515137	0.000425354	0.000367401	0.000293335	0.000255341	0.000210602	0.00018399	0.000123108	8.54797e-05	4.47418e-05	2.38708e-05	1.55243e-05	1.11694e-05	6.83899e-06
0.363312	0.00101013	0.000974426	0.00092865	0.000877686	0.000821838	0.000759583	0.000687866	0.000601196	0.000486572	0.000409637	0.000309509	0.000258881	0.000200867	0.000167999	9.86023e-05	6.29272e-05	3.17169e-05	1.7749e-05	1.2149e-05	9.10034e-06	5.91431e-06
0.397491	0.00113586	0.0010965	0.00104523	0.000987854	0.000922241	0.000847168	0.000757751	0.000646667	0.000496552	0.000396973	0.000273529	0.000215149	0.000153076	0.000121582	6.6803e-05	4.36981e-05	2.35046e-05	1.38519e-05	9.76257e-06	7.44019e-06	4.93469e-06
0.431671	0.00124451	0.00119843	0.00113739	0.0010675	0.000987549	0.000893555	0.000781555	0.00064209	0.000459442	0.000344696	0.000212891	0.000158569	0.000109558	8.81348e-05	5.2002e-05	3.52478e-05	1.94275e-05	1.16791e-05	8.31299e-06	6.35986e-06	4.21448e-06
0.465729	0.00132477	0.00126831	0.00119354	0.0011087	0.00101135	0.0008984375	0.000764465	0.000601501	0.000397278	0.000279022	0.000163269	0.000123444	8.92639e-05	7.37e-05	4.51416e-05	3.08716e-05	1.71051e-05	1.03333e-05	7.3761e-06	5.6427e-06	3.75061e-06
0.499878	0.00137238	0.0013031	0.0012146	0.0011145	0.00100128	0.000870972	0.00071991	0.000540161	0.000331268	0.000226288	0.000137054	0.000106934	7.95288e-05	6.63757e-05	4.11438e-05	2.81403e-05	1.5625E-05	9.47571e-06	6.75049e-06	5.16357e-06	3.46069e-06
0.533936	0.00138824	0.00130676	0.00120575	0.00109253	0.000966187	0.000822754	0.000658264	0.000472168	0.000279968	0.000194794	0.000123352	9.78394e-05	7.37e-05	6.17676e-05	3.84705e-05	2.63306e-05	1.46179e-05	8.87451e-06	6.32629e-06	4.84314e-06	3.30505e-06
0.568085	0.00137634	0.00128571	0.00117462	0.00105133	0.000914001	0.000760193	0.000591125	0.000413422	0.00024707	0.000176544	0.000115021	9.2041e-05	6.97327e-05	5.859375E-05	3.65875e-05	2.50763e-05	1.39465e-05	8.53882e-06	6.12488e-06	4.71191e-06	3.25317e-06
0.602264	0.00134399	0.00124756	0.00112793	0.000995483	0.00085083	0.00069458	0.000530701	0.000368927	0.000226166	0.000164764	0.000109131	8.77075e-05	6.66504e-05	5.60913e-05	3.51166e-05	2.41028e-05	1.35223e-05	8.38318e-06	6.04858e-06	4.67529e-06	3.29895e-06
0.636414	0.00129822	0.00119568	0.00106964	0.000932617	0.000786743	0.000634766	0.000481323	0.000337524	0.000211884	0.000156464	0.000104645	8.43201e-05	6.427e-05	5.41382e-05	3.39874e-05	2.34253e-05	1.32965e-05	8.36487e-06	6.11267e-06	4.73328e-06	3.37524e-06
0.670593	0.00124207	0.00113647	0.00100769	0.000870361	0.000727844	0.000583801	0.000443573	0.000314789	0.000201447	0.000149933	0.000101044	8.1604e-05	6.23474e-05	5.26123e-05	3.32306e-05	2.30408e-05	1.33453e-05	8.53882e-06	6.23779e-06	4.81567e-06	3.39966e-06
0.704803	0.00118134	0.00107544	0.00094696	0.000812683	0.000676575	0.000542297	0.000414642	0.000297791	0.00019339	0.000144989	9.82971e-05	7.96509e-05	6.10962e-05	5.16357e-05	3.29803e-05	2.30865e-05	1.36353e-05	8.76465e-06	6.32935e-06	4.86145e-06	3.42102e-06
0.739075	0.00112152	0.00101624	0.000890808	0.000762024	0.000633545	0.000509338	0.00039209	0.000284729	0.000187256	0.000141235	9.6405e-05	7.83386e-05	6.04858e-05	5.12695e-05	3.31177e-05	2.34192e-05	1.39313e-05	8.88367e-06	6.37207e-06	4.87671e-06	3.43323e-06
0.773926	0.00106476	0.000962219	0.000841064	0.000718689	0.00059845	0.000483002	0.000374725	0.00027478	0.000182953	0.000138824	9.54895e-05	7.79419e-05	6.03943e-05	5.13611e-05	3.34564e-05	2.37152e-05	1.40839e-05	8.94165e-06	6.43005e-06	4.93774e-06	3.48816e-06
0.793762	0.000879517	0.00078186	0.00066925	0.000557861	0.000450378	0.000349213	0.000256134	0.000172699	9.9823e-05	6.75964e-05	4.00787e-05	3.07159e-05	2.3172e-05	1.99432e-05	1.55579e-05	1.37299e-05	1.08826e-05	7.84607e-06	5.82581e-06	4.55322e-06	3.2959e-06
0.758972	0.000461548	0.000383392	0.000298035	0.000218109	0.000146393	8.48999e-05	3.62274e-05	3.35083e-06	-1.09436e-05	-1.05011e-05	-4.55017e-06	-1.31836e-06	2.36816e-06	4.00085e-06	7.39441e-06	8.45337e-06	8.01086e-06	6.18591e-06	4.73938e-06	3.77197e-06	2.78015e-06
0.724518	0.000211792	0.000153625	9.33228e-05	4.07349e-05	-1.87988e-06	-3.3017e-05	-5.05371e-05	-5.2948e-05	-3.98651e-05	-2.86255e-05	-1.49628e-05	-9.43909e-06	-3.80249e-06	-1.2207e-06	3.95508e-06	5.97534e-06	6.53992e-06	5.31006e-06	4.13513e-06	3.31116e-06	2.47803e-06
0.690277	4.07013e-05	1.46484e-07	-3.90564e-05	-6.9519e-05	-9.021e-05	-9.95483e-05	-9.65271e-05	-8.11768e-05	-5.48401e-05	-3.88702e-05	-2.17072e-05	-1.492e-05	-8.02612e-06	-4.84009e-06	1.51672e-06	4.18396e-06	5.44128e-06	4.65698e-06	3.69263e-06	2.97546e-06	2.2522e-06
0.656036	-8.30078e-05	-0.000109009	-0.000131134	-0.000144501	-0.000148499	-0.000142212	-0.000125549	-9.93042e-05	-6.53381e-05	-4.66675e-05	-2.70172e-05	-1.92841e-05	-1.14746e-05	-7.78809e-06	-4.91333e-07	2.71912e-06	4.56848e-06	4.10767e-06	3.29895e-06	2.70996e-06	2.05383e-06
0.621857	-0.000176453	-0.000190491	-0.000198853	-0.000198883	-0.000190216	-0.000172638	-0.000146606	-0.000113129	-7.39746e-05	-5.31921e-05	-3.15887e-05	-2.2995e-05	-1.43982e-05	-1.03058e-05	-2.22168e-06	1.45264e-06	3.8147e-06	3.63464e-06	2.97546e-06	2.44751e-06	1.89819e-06
0.587708	-0.000248932	-0.00025296	-0.000250275	-0.000239746	-0.00022168	-0.000195801	-0.000163208	-0.000124573	-8.15735e-05	-5.9021e-05	-3.56018e-05	-2.63977e-05	-1.70959e-05	-1.26282e-05	-3.81165e-06	2.65503e-07	3.10059e-06	3.20129e-06	2.6825e-06	2.23694e-06	1.75171e-06
0.553528	-0.000307922	-0.000303162	-0.000291626	-0.000272949	-0.000247284	-0.000215363	-0.000177612	-0.00013501	-8.86841e-05	-6.44531e-05	-3.9444e-05	-2.9541e-05	-1.9574e-05	-1.48071e-05	-5.28259e-06	-7.87354e-07	2.49023e-06	2.87781e-06	2.44446e-06	2.04773e-06	1.62048e-06
0.519501	-0.000357635	-0.000345459	-0.000326447	-0.000301056	-0.000269684	-0.000232666	-0.000190796	-0.000144867	-9.53979e-05	-6.94885e-05	-4.30206e-05	-3.2428e-05	-2.1875E-05	-1.6748e-05	-6.52161e-06	-1.68152e-06	2.00806e-06	2.56348e-06	2.2583e-06	1.9104e-06	1.52893e-06
0.485291	-0.000400116	-0.000381683	-0.000356598	-0.000325714	-0.00028952	-0.000248413	-0.000203186	-0.000154144	-0.000101624	-7.44324e-05	-4.64386e-05	-3.53088e-05	-2.41058e-05	-1.87103e-05	-7.82776e-06	-2.58789e-06	1.49231e-06	2.27356e-06	2.05078e-06	1.77002e-06	1.44043e-06
0.451202	-0.000437744	-0.000414276	-0.000383972	-0.00034848	-0.000308258	-0.000263824	-0.000215515	-0.000163635	-0.00010849	-7.9895e-05	-5.05676e-05	-3.87878e-05	-2.69928e-05	-2.11975e-05	-9.552e-06	-3.84521e-06	8.05664e-07	1.90125e-06	1.80359e-06	1.58081e-06	1.31836e-06
0.417053	-0.000472839	-0.000445038	-0.000410492	-0.000371094	-0.000327637	-0.000280151	-0.000229187	-0.000174896	-0.00011731	-8.74023e-05	-5.65491e-05	-4.40277e-05	-3.13385e-05	-2.50671e-05	-1.22955e-05	-5.82886e-06	-3.11279e-07	1.3092e-06	1.41296e-06	1.30005e-06	1.15356e-06
0.382843	-0.000509033	-0.000477478	-0.000439606	-0.000397217	-0.000351044	-0.000301147	-0.000248169	-0.000191925	-0.000132141	-0.000100739	-6.77795e-05	-5.41992e-05	-4.01123e-05	-3.29559e-05	-1.80206e-05	-1.01349e-05	-2.74658e-06	3.05176e-08	5.95093e-07	6.86646e-07	7.69043e-07
0.348785	-0.000551147	-0.000517578	-0.000477509	-0.000433014	-0.000385468	-0.000334503	-0.000280457	-0.000223175	-0.000161652	-0.00012854	-9.25903e-05	-7.70569e-05	-6.04248e-05	-5.16052e-05	-3.22205e-05	-2.11304e-05	-9.43298e-06	-3.74146e-06	-1.85852e-06	-1.08032e-06	-3.41797e-07
0.314606	-0.000611572	-0.000577087	-0.000536194	-0.000491516	-0.00044397	-0.000393372	-0.000339813	-0.000282501	-0.000219025	-0.000183197	-0.000142059	-0.000123047	-0.000101624	-8.95691e-05	-6.19202e-05	-4.46808e-05	-2.45026e-05	-1.27808e-05	-7.93152e-06	-5.50537e-06	-2.97852e-06
0.280426	-0.000700989	-0.000666504	-0.000626526	-0.000582581	-0.000536194	-0.000486237	-0.000432709	-0.000373871	-0.000305847	-0.000264709	-0.000213013	-0.000187744	-0.000158325	-0.000141266	-0.0001008	-7.44629e-05	-4.25476e-05	-2.31445e-05	-1.4624e-05	-1.01868e-05	-5.67017e-06
0.246307	-0.000821838	-0.000787354	-0.00074707	-0.00070343	-0.000656128	-0.000604858	-0.000549011	-0.000485229	-0.000402313	-0.00034729	-0.000277985	-0.000243225	-0.000202209	-0.000177856	-0.00012088	-8.48389e-05	-4.43573e-05	-2.27814e-05	-1.40991e-05	-9.8175e-06	-5.59387e-06
0.21225	-0.000971375	-0.00092804	-0.000885315	-0.000839233	-0.000789185	-0.000733337	-0.000667114	-0.000581665	-0.000468994	-0.000396027	-0.000302856	-0.000255768	-0.000201111	-0.000169647	-0.000101776	-6.5155e-05	-3.14087e-05	-1.62842e-05	-1.04706e-05	-7.53174e-06	-4.50439e-06
0.178101	-0.00112671	-0.00107941	-0.00102966	-0.000974121	-0.000910034	-0.00083313	-0.000741577	-0.000629883	-0.000485718	-0.000392029	-0.000274811	-0.000218872	-0.00015863	-0.00012738	-6.99158e-05	-4.44214e-05	-2.22961e-05	-1.21307e-05	-8.09326e-06	-5.97229e-06	-3.64685e-06
0.143951	-0.00123871	-0.00119446	-0.0011319	-0.00105865	-0.000975342	-0.000878906	-0.000766907	-0.000631104	-0.000456024	-0.000345673	-0.00021875	-0.000165771	-0.000115814	-9.29871e-05	-5.30701e-05	-3.48633e-05	-1.79932e-05	-9.95483e-06	-6.73523e-06	-5.00488e-06	-3.07007e-06
0.109802	-0.00131042	-0.00125732	-0.00118256	-0.0010965	-0.00099884	-0.000886841	-0.000755615	-0.000596924	-0.000398895	-0.000285187	-0.00017218	-0.000131287	-9.43909e-05	-7.74536e-05	-4.59595e-05	-3.06396e-05	-1.58691e-05	-8.77991e-06	-5.95703e-06	-4.40979e-06	-2.69775e-06
0.0756531	-0.00135773	-0.0012912	-0.00120514	-0.00110687	-0.000995178	-0.00086731	-0.000718079	-0.000541687	-0.00034024	-0.000238983	-0.000147766	-0.000115387	-8.50525e-05	-7.06787e-05	-4.27216e-05	-2.85919e-05	-1.47339e-05	-8.09326e-06	-5.43823e-06	-4.02832e-06	-2.43835e-06
0.0414673	-0.00138611	-0.00130432	-0.00120605	-0.00109467	-0.000969238	-0.000826721	-0.000663757	-0.000483246	-0.000297974	-0.00021283	-0.000136047	-0.000107758	-8.06274e-05	-6.74744e-05	-4.11102e-05	-2.75757e-05	-1.41235e-05	-7.68738e-06	-5.13306e-06	-3.79333e-06	-2.29492e-06
0.00733032	-0.00139557	-0.00129913	-0.00118866	-0.00106506	-0.000927429	-0.000774231	-0.000608521	-0.00043689	-0.000273468	-0.000199249	-0.000130219	-0.000104095	-7.85522e-05	-6.60095e-05	-4.04816e-05	-2.72095e-05	-1.38916e-05	-7.50732e-06	-4.98962e-06	-3.70483e-06	-2.26135e-06
-0.0268921	-0.00138458	-0.00127808	-0.00115631	-0.00102264	-0.000877686	-0.000723267	-0.000563965	-0.000406738	-0.000260345	-0.000192474	-0.000127686	-0.000102783	-7.8064e-05	-6.58569e-05	-4.05762e-05	-2.73376e-05	-1.39709e-05	-7.53479e-06	-5.02625e-06	-3.75671e-06	-2.39258e-06
-0.0611267	-0.00135529	-0.00124237	-0.00111389	-0.000975952	-0.000830994	-0.000681458	-0.000532532	-0.000388672	-0.000253418	-0.000189331	-0.000126984	-0.000102783	-7.84302e-05	-6.64673e-05	-4.11774e-05	-2.78778e-05	-1.43646e-05	-7.81555e-06	-5.31616e-06	-4.04358e-06	-2.69165e-06
-0.0952454	-0.00131683	-0.00120056	-0.00107025	-0.000933228	-0.000792847	-0.00065155	-0.000512695	-0.00037854	-0.000250427	-0.00018869	-0.000127747	-0.000103973	-7.97424e-05	-6.78406e-05	-4.23645e-05	-2.89154e-05	-1.51459e-05	-8.47778e-06	-5.93872e-06	-4.64783e-06	-3.24097e-06
-0.129517	-0.00127808	-0.00116119	-0.00103241	-0.000899658	-0.000765076	-0.000631714	-0.000501099	-0.000373962	-0.000250366	-0.000190002	-0.000129822	-0.00010611	-8.19092e-05	-6.99463e-05	-4.41895e-05	-3.05695e-05	-1.64825e-05	-9.64355e-06	-6.9519e-06	-5.52673e-06	-3.84521e-06
-0.163788	-0.00124512	-0.00112946	-0.00100403	-0.000875854	-0.000747986	-0.000621033	-0.000496124	-0.000373627	-0.000252869	-0.000193176	-0.00013327	-0.000109558	-8.51746e-05	-7.32117e-05	-4.69604e-05	-3.31146e-05	-1.86035e-05	-1.1319e-05	-8.1604e-06	-6.39648e-06	-4.29993e-06
-0.197998	-0.00121887	-0.00110596	-0.000984802	-0.000861816	-0.000738831	-0.000617065	-0.000496124	-0.00037677	-0.000257538	-0.000198273	-0.000138123	-0.00011438	-8.97827e-05	-7.77893e-05	-5.09949e-05	-3.67584e-05	-2.13623e-05	-1.30341e-05	-9.17358e-06	-6.97632e-06	-4.53796e-06
-0.16864	-0.000677795	-0.000583191	-0.000485535	-0.000389252	-0.000296204	-0.000207611	-0.000125183	-5.19409e-05	5.30701e-06	2.27356e-05	2.84149e-05	2.58911e-05	2.06879e-05	1.69586e-05	7.82166e-06	2.19727e-06	-2.65808e-06	-3.74756e-06	-3.32947e-06	-2.82898e-06	-2.09045e-06
-0.134338	-0.000318298	-0.00024469	-0.000171967	-0.000103394	-4.06281e-05	1.42975e-05	5.84106e-05	8.66394e-05	9.06982e-05	7.93762e-05	5.83191e-05	4.73267e-05	3.49579e-05	2.84912e-05	1.4563e-05	7.17468e-06	5.7373e-07	-1.54724e-06	-1.69983e-06	-1.5686e-06	-1.26648e-06
-0.100159	-6.79016e-05	-1.22498e-05	3.87848e-05	8.34656e-05	0.000119751	0.000145996	0.000158997	0.000153534	0.000124084	9.94568e-05	6.83289e-05	5.45349e-05	4.00024e-05	3.27209e-05	1.72668e-05	9.25903e-06	2.00806e-06	-4.79126e-07	-8.54492e-07	-8.78906e-07	-7.90405e-07
-0.065918	0.000117493	0.000156952	0.000188171	0.000211975	0.00022644	0.000228851	0.000216675	0.000187805	0.000139801	0.000108429	7.27234e-05	5.77087e-05	4.21692e-05	3.45398e-05	1.84296e-05	1.01593e-05	2.64893e-06	7.01904e-08	-3.90625e-07	-5.00488e-07	-4.85229e-07
-0.0315521	0.000258301	0.000282562	0.000296936	0.00030188	0.000296478	0.000279541	0.000250061	0.000206543	0.000147552	0.000112579	7.45239e-05	5.896e-05	4.30267e-05	3.52142e-05	1.87958e-05	1.04584e-05	2.89917e-06	3.20435e-07	-1.7395e-07	-2.68555e-07	-3.23486e-07
0.00269775	0.000366547	0.000376099	0.000373962	0.000362823	0.000342316	0.00031189	0.000270569	0.000217163	0.000151428	0.000114471	7.52563e-05	5.93872e-05	4.31915e-05	3.53058e-05	1.88019e-05	1.04156e-05	2.92358e-06	3.8147e-07	-9.15527e-08	-1.80054e-07	-2.22778e-07
0.0368439	0.000446869	0.000442139	0.000427094	0.000404083	0.000372742	0.000332642	0.000282867	0.000222992	0.000152985	0.00011499	7.52258e-05	5.92346e-05	4.30023e-05	3.50403e-05	1.85699e-05	1.0257e-05	2.87781e-06	3.96729e-07	-7.32422e-08	-1.5564e-07	-1.98364e-07
0.0707703	0.000505371	0.000490112	0.000465363	0.000433594	0.000394165	0.00034668	0.000290924	0.00022641	0.000153839	0.000115173	7.52258e-05	5.91431e-05	4.28345e-05	3.48602e-05	1.84631e-05	1.01532e-05	2.82288e-06	4.15039e-07	-4.27246e-08	-1.25122e-07	-1.67847e-07
0.10495	0.000548096	0.000525513	0.000493866	0.000455353	0.000409546	0.00035672	0.000296448	0.00022879	0.000154541	0.000115631	7.5531e-05	5.93872e-05	4.30725e-05	3.50128e-05	1.86127e-05	1.02997e-05	2.95105e-06	4.85229e-07	-3.05176e-09	-1.12915e-07	-1.64795e-07
0.139099	0.00058075	0.000553589	0.000516357	0.00047229	0.000421997	0.000364899	0.000301147	0.000231354	0.000156158	0.000117096	7.69958e-05	6.08215e-05	4.43726e-05	3.62061e-05	1.95709e-05	1.10413e-05	3.39966e-06	7.14111e-07	1.37329e-07	-4.27246e-08	-1.34277e-07
0.173218	0.000608521	0.000578308	0.000536804	0.000488708	0.000434418	0.000373901	0.000307831	0.000236877	0.000161652	0.000122589	8.23059e-05	6.57349e-05	4.88892e-05	4.03259e-05	2.26471e-05	1.33301e-05	4.68445e-06	1.35803e-06	4.97437e-07	2.0752e-07	-1.2207e-08
0.207336	0.000636292	0.000604553	0.000559692	0.0005078125	0.0004505	0.000388397	0.000321991	0.000251709	0.000177521	0.000138611	9.74121e-05	7.9895e-05	6.15234e-05	5.19409e-05	3.14758e-05	2.00562e-05	8.59375E-06	3.35693e-06	1.651e-06	9.30786e-07	3.60107e-07
0.241455	0.000674133	0.000639648	0.000592041	0.00053894	0.000481781	0.000420776	0.000356537	0.000288757	0.0002164	0.00017688	0.000132996	0.00011319	9.14917e-05	7.94983e-05	5.2887e-05	3.67126e-05	1.88019e-05	9.04846e-06	5.07507e-06	3.19214e-06	1.51978e-06
0.275574	0.000731506	0.000694885	0.000647888	0.000597229	0.000542297	0.000484558	0.000423828	0.000358856	0.00028595	0.000243378	0.000192993	0.000168762	0.000141052	0.000124939	8.79822e-05	6.41785e-05	3.61328e-05	1.93604e-05	1.185e-05	7.94067e-06	4.15344e-06
0.309692	0.000818176	0.00078186	0.000737305	0.000688782	0.000637207	0.000581665	0.000522156	0.00045517	0.000374756	0.000324341	0.000261292	0.000229584	0.000192261	0.000170074	0.000118561	8.54797e-05	4.71619e-05	2.54456e-05	1.62048e-05	1.14258e-05	6.5979e-06
0.343842	0.000933838	0.000897522	0.000853271	0.000805054	0.000752563	0.00069519	0.000630188	0.000553284	0.000454895	0.000389862	0.000305603	0.000262268	0.000211426	0.000181732	0.000115479	7.69653e-05	3.88214e-05	2.09351e-05	1.38947e-05	1.02509e-05	6.45752e-06
0.37793	0.00106232	0.00102295	0.000975952	0.000923157	0.000864563	0.000798035	0.00071991	0.000624084	0.0004953	0.000408569	0.000297241	0.000242371	0.000181213	0.000147766	8.22144e-05	5.23376e-05	2.7179e-05	1.56067e-05	1.0849e-05	8.22449e-06	5.41077e-06
0.412079	0.00118256	0.001138	0.00108337	0.00102142	0.000950623	0.00086853	0.000770264	0.000646973	0.000482056	0.000375153	0.000246185	0.000187897	0.000129913	0.000102844	5.81055e-05	3.88397e-05	2.12067e-05	1.26007e-05	8.92029e-06	6.82983e-06	4.55017e-06
0.446259	0.00127869	0.00122589	0.00115997	0.00108429	0.000997314	0.000895691	0.000774231	0.000624084	0.000431458	0.000313446	0.00018634	0.000138519	9.75037e-05	7.94983e-05	4.79004e-05	3.26569e-05	1.80725e-05	1.08917e-05	7.74841e-06	5.94177e-06	3.95508e-06
0.480377	0.00134399	0.0012796	0.00119965	0.0011087	0.00100494	0.000884705	0.000742798	0.000572815	0.000364319	0.000250793	0.000147736	0.000113342	8.31909e-05	6.91223e-05	4.26147e-05	2.91748e-05	1.61865e-05	9.77173e-06	6.97327e-06	5.33752e-06	3.58887e-06
0.514465	0.00137726	0.00130005	0.00120636	0.00110077	0.000982056	0.000846558	0.000689392	0.000505676	0.000303162	0.000207703	0.000128357	0.000100952	7.5592e-05	6.32324e-05	3.93127e-05	2.69135e-05	1.4917e-05	9.03625e-06	6.44226e-06	4.92859e-06	3.33862e-06
0.548584	0.00138031	0.0012915	0.00118591	0.00106903	0.000938416	0.000790405	0.000623169	0.000440338	0.000260468	0.000183197	0.000117554	9.36584e-05	7.07397e-05	5.93872e-05	3.70514e-05	2.53906e-05	1.40869e-05	8.56628e-06	6.10962e-06	4.68445e-06	3.2074e-06
0.582733	0.00135803	0.00126129	0.00114685	0.0010202	0.000879517	0.000724487	0.000557861	0.000387299	0.000233582	0.000168365	0.000110504	8.8562e-05	6.72302e-05	5.65491e-05	3.53577e-05	2.42493e-05	1.35284e-05	8.29163e-06	5.93567e-06	4.56848e-06	3.21045e-06
0.616882	0.00131805	0.00121521	0.00109314	0.000959167	0.000814514	0.000660095	0.000501404	0.000348999	0.000216125	0.000158264	0.000105286	8.47168e-05	6.44531e-05	5.42908e-05	3.4021e-05	2.33734e-05	1.31714e-05	8.18176e-06	5.9082e-06	4.599e-06	3.25012e-06
0.651123	0.00126617	0.00115875	0.0010321	0.000895691	0.000751953	0.000603638	0.000457489	0.000322144	0.000203796	0.000151031	0.000101288	8.1665e-05	6.23169e-05	5.25513e-05	3.3078e-05	2.2818e-05	1.30463e-05	8.21838e-06	5.96924e-06	4.66614e-06	3.30811e-06
0.685272	0.00120605	0.00109741	0.000969543	0.000834351	0.000695496	0.000556946	0.00042392	0.000302216	0.000194519	0.000145172	9.79614e-05	7.92236e-05	6.06384e-05	5.12085e-05	3.24738e-05	2.26044e-05	1.31592e-05	8.39233e-06	6.08521e-06	4.71191e-06	3.31726e-06
0.719574	0.00114502	0.00103638	0.000910034	0.000779419	0.000647888	0.000519714	0.000398071	0.000287109	0.000187286	0.000140747	9.56116e-05	7.75452e-05	5.96008e-05	5.04761e-05	3.23639e-05	2.276e-05	1.34674e-05	8.53882e-06	6.12793e-06	4.73328e-06	3.32642e-06
0.7547	0.00108521	0.000978699	0.000856018	0.000731201	0.000608215	0.000489441	0.000377899	0.000275391	0.000181885	0.000137421	9.40247e-05	7.65381e-05	5.91736e-05	5.02625e-05	3.2608e-05	2.30713e-05	1.36475e-05	8.59375E-06	6.14929e-06	4.75464e-06	3.36609e-06
0.787964	0.00103119	0.000927124	0.000809326	0.000691528	0.000576477	0.000466034	0.00036261	0.000266876	0.000178314	0.000135468	9.34448e-05	7.62939e-05	5.92041e-05	5.04456e-05	3.2901e-05	2.33093e-05	1.37451e-05	8.67004e-06	6.23474e-06	4.82483e-06	3.42712e-06
0.778198	0.000656433	0.00056427	0.000464203	0.000368011	0.000278076	0.000196472	0.000125366	6.73523e-05	2.57568e-05	1.26587e-05	6.84509e-06	6.56738e-06	7.53479e-06	8.14819e-06	9.82056e-06	1.01166e-05	8.88977e-06	6.63147e-06	5.0354e-06	3.97034e-06	2.91748e-06
0.74408	0.000330658	0.000259827	0.000187378	0.000121674	6.48499e-05	1.9101e-05	-1.33026e-05	-3.00446e-05	-2.90619e-05	-2.21741e-05	-1.12976e-05	-6.59485e-06	-1.62354e-06	6.53076e-07	5.15137e-06	6.82983e-06	6.98853e-06	5.52063e-06	4.27551e-06	3.41797e-06	2.53601e-06
0.709869	0.000121307	7.0282e-05	2.11334e-05	-1.9751e-05	-5.05981e-05	-7.01294e-05	-7.68433e-05	-6.97937e-05	-4.93469e-05	-3.52936e-05	-1.94336e-05	-1.30585e-05	-6.62537e-06	-3.6377e-06	2.31018e-06	4.76379e-06	5.78308e-06	4.78821e-06	3.77502e-06	3.05481e-06	2.28882e-06
0.675629	-2.63428e-05	-6.02417e-05	-8.98743e-05	-0.000111237	-0.000122833	-0.00012381	-0.000113495	-9.23767e-05	-6.17371e-05	-4.39972e-05	-2.52991e-05	-1.79047e-05	-1.04309e-05	-6.86646e-06	1.15967e-07	3.16772e-06	4.81262e-06	4.19922e-06	3.36304e-06	2.74353e-06	2.09656e-06
0.641418	-0.000134857	-0.00015509	-0.000169373	-0.000175232	-0.000172241	-0.000159943	-0.000138184	-0.000108093	-7.1106e-05	-5.10864e-05	-3.01544e-05	-2.19055e-05	-1.35345e-05	-9.56726e-06	-1.73035e-06	1.81885e-06	4.02832e-06	3.71399e-06	3.0426e-06	2.49634e-06	1.96228e-06
0.607239	-0.000217499	-0.000226776	-0.000228546	-0.000222565	-0.000208496	-0.000186432	-0.000156769	-0.000120483	-7.8949e-05	-5.70374e-05	-3.4375E-05	-2.53601e-05	-1.62811e-05	-1.19293e-05	-3.35083e-06	6.37817e-07	3.29895e-06	3.27454e-06	2.734375E-06	2.2644e-06	1.81885e-06
0.57309	-0.00028299	-0.000282593	-0.000274536	-0.000259277	-0.000236969	-0.000207733	-0.000172211	-0.000131348	-8.62122e-05	-6.26526e-05	-3.82996e-05	-2.8595e-05	-1.88477e-05	-1.41876e-05	-4.88586e-06	-4.73022e-07	2.64587e-06	2.90222e-06	2.46887e-06	2.06299e-06	1.66321e-06
0.539001	-0.000336945	-0.000328583	-0.000312561	-0.000289917	-0.000261108	-0.000226196	-0.000186157	-0.000141449	-9.31396e-05	-6.79932e-05	-4.20227e-05	-3.16772e-05	-2.13074e-05	-1.62628e-05	-6.24084e-06	-1.45264e-06	2.11487e-06	2.59705e-06	2.2583e-06	1.91345e-06	1.55029e-06
0.504822	-0.000382385	-0.000367218	-0.000344757	-0.000316162	-0.000282013	-0.000242615	-0.000198669	-0.000150787	-9.95178e-05	-7.27844e-05	-4.53644e-05	-3.44055e-05	-2.34131e-05	-1.80847e-05	-7.43713e-06	-2.28882e-06	1.65405e-06	2.31018e-06	2.08435e-06	1.77307e-06	1.46484e-06
0.470734	-0.000422455	-0.000401367	-0.000373383	-0.000339783	-0.000301025	-0.000258026	-0.000210754	-0.000159943	-0.000105865	-7.78503e-05	-4.90417e-05	-3.75122e-05	-2.58972e-05	-2.02454e-05	-8.88367e-06	-3.33862e-06	1.05896e-06	2.00806e-06	1.86462e-06	1.62354e-06	1.35193e-06
0.436584	-0.000458282	-0.000432281	-0.000399689	-0.000361816	-0.00031958	-0.000273193	-0.000223236	-0.000169739	-0.00011319	-8.38623e-05	-5.36804e-05	-4.14856e-05	-2.9184e-05	-2.31262e-05	-1.0907e-05	-4.79736e-06	2.38037e-07	1.56555e-06	1.5686e-06	1.41602e-06	1.22681e-06
0.402466	-0.000492859	-0.000462921	-0.0004263	-0.000385071	-0.000339813	-0.000290802	-0.000238312	-0.000182709	-0.00012381	-9.31396e-05	-6.12183e-05	-4.81873e-05	-3.48511e-05	-2.81952e-05	-1.44958e-05	-7.44629e-06	-1.23291e-06	7.99561e-07	1.07422e-06	1.05896e-06	9.85718e-07
0.368225	-0.000530396	-0.000497314	-0.000457764	-0.000413879	-0.000366425	-0.000315399	-0.000261322	-0.000204224	-0.000143372	-0.000111084	-7.68127e-05	-6.24084e-05	-4.72809e-05	-3.94989e-05	-2.29034e-05	-1.38336e-05	-4.97131e-06	-1.25427e-06	-2.44141e-07	9.46045e-08	3.66211e-07
0.334076	-0.000578613	-0.000543823	-0.000502625	-0.000457458	-0.000409088	-0.000357605	-0.000303284	-0.000245728	-0.000183289	-0.000149048	-0.000111053	-9.42078e-05	-7.57446e-05	-6.56433e-05	-4.31061e-05	-2.96753e-05	-1.48773e-05	-7.02209e-06	-4.06189e-06	-2.6825e-06	-1.34888e-06
0.299988	-0.000649719	-0.000614929	-0.000573425	-0.00052887	-0.000481262	-0.000430542	-0.000377045	-0.000319183	-0.000253967	-0.00021637	-0.000171631	-0.000150146	-0.000125519	-0.00011145	-7.87354e-05	-5.78613e-05	-3.28857e-05	-1.78772e-05	-1.1319e-05	-7.95288e-06	-4.43115e-06
0.2659	-0.000752563	-0.000717773	-0.000677185	-0.00063324	-0.000586548	-0.000536194	-0.000481171	-0.000420746	-0.000349335	-0.000302887	-0.00024408	-0.000215088	-0.000181	-0.00016098	-0.000113434	-8.26416e-05	-4.59351e-05	-2.44781e-05	-1.52863e-05	-1.05804e-05	-5.86243e-06
0.23175	-0.000884705	-0.000848389	-0.000806885	-0.000761719	-0.000712891	-0.000660095	-0.000602112	-0.000533142	-0.000437286	-0.000374786	-0.000295624	-0.000255615	-0.000208374	-0.00018042	-0.000116791	-7.86133e-05	-3.90228e-05	-1.9809e-05	-1.23871e-05	-8.70056e-06	-5.06897e-06
0.197601	-0.00104248	-0.000994873	-0.000948792	-0.000899963	-0.000846558	-0.000784607	-0.000708008	-0.000610657	-0.000483917	-0.000401917	-0.000297272	-0.000245148	-0.000186127	-0.00015332	-8.70056e-05	-5.46875E-05	-2.66235e-05	-1.4093e-05	-9.22241e-06	-6.71387e-06	-4.05273e-06
0.163483	-0.00118469	-0.00113922	-0.00108368	-0.00102051	-0.000947571	-0.000861511	-0.000760193	-0.000637817	-0.000479401	-0.000377289	-0.000252869	-0.000196136	-0.000138336	-0.000110199	-6.10352e-05	-3.9386e-05	-2.00348e-05	-1.10016e-05	-7.38525e-06	-5.47791e-06	-3.33862e-06
0.129303	-0.00127808	-0.00122986	-0.00116211	-0.00108307	-0.000993042	-0.000889282	-0.000768738	-0.000622559	-0.000435516	-0.000321106	-0.000197021	-0.000148743	-0.00010495	-8.5144e-05	-4.95605e-05	-3.27759e-05	-1.6925e-05	-9.35059e-06	-6.3385e-06	-4.72717e-06	-2.88391e-06
0.0952148	-0.0013382	-0.00127808	-0.00119873	-0.00110748	-0.00100372	-0.000884705	-0.000745239	-0.000577698	-0.000374359	-0.00026416	-0.000160431	-0.000123688	-9.00574e-05	-7.43713e-05	-4.45374e-05	-2.97211e-05	-1.53473e-05	-8.44116e-06	-5.70374e-06	-4.24194e-06	-2.56958e-06
0.0610657	-0.00137787	-0.0013031	-0.00121216	-0.00110809	-0.000990295	-0.000855408	-0.000699463	-0.000518494	-0.000321533	-0.00022702	-0.0001427	-0.000112183	-8.3313e-05	-6.94885e-05	-4.21875E-05	-2.82471e-05	-1.44897e-05	-7.90405e-06	-5.31921e-06	-3.92151e-06	-2.38342e-06
0.0268524	-0.00139832	-0.0013089	-0.00120483	-0.00108826	-0.000957031	-0.000808411	-0.0006427	-0.000463928	-0.000287415	-0.000207245	-0.000134003	-0.000106628	-8.01086e-05	-6.71692e-05	-4.1098e-05	-2.75604e-05	-1.40869e-05	-7.62329e-06	-5.09033e-06	-3.74451e-06	-2.28271e-06
-0.00732727	-0.00139984	-0.00129761	-0.00118164	-0.00105286	-0.000910339	-0.00075531	-0.000591125	-0.000424561	-0.000268555	-0.000197205	-0.000129944	-0.000104248	-7.88574e-05	-6.64673e-05	-4.08783e-05	-2.74719e-05	-1.39984e-05	-7.55005e-06	-5.01404e-06	-3.72009e-06	-2.31628e-06
-0.0415649	-0.00138	-0.00126923	-0.00114349	-0.00100708	-0.000860596	-0.000707397	-0.000551758	-0.000399933	-0.000258392	-0.000192139	-0.000128204	-0.000103485	-7.87964e-05	-6.66199e-05	-4.11987e-05	-2.78046e-05	-1.42548e-05	-7.67822e-06	-5.16968e-06	-3.87878e-06	-2.5177e-06
-0.0756531	-0.00134552	-0.00122986	-0.00109955	-0.000961304	-0.000817261	-0.000670471	-0.000525513	-0.000385803	-0.000253448	-0.000190216	-0.000128265	-0.000104065	-7.96814e-05	-6.76575e-05	-4.21356e-05	-2.86224e-05	-1.48621e-05	-8.1665e-06	-5.61523e-06	-4.32434e-06	-2.948e-06
-0.109955	-0.00130646	-0.00118805	-0.00105804	-0.000921936	-0.000783386	-0.000645142	-0.000509644	-0.000378296	-0.000251801	-0.000190399	-0.000129608	-0.000105743	-8.14209e-05	-6.9397e-05	-4.36188e-05	-2.995e-05	-1.59027e-05	-9.05151e-06	-6.427e-06	-5.05676e-06	-3.53699e-06
-0.144135	-0.00126984	-0.00115143	-0.00102386	-0.000892639	-0.000760193	-0.000629272	-0.000501099	-0.000375549	-0.000252869	-0.000192657	-0.000132294	-0.000108459	-8.40759e-05	-7.20215e-05	-4.58984e-05	-3.20435e-05	-1.75934e-05	-1.04736e-05	-7.58972e-06	-5.94788e-06	-4.06799e-06
-0.178436	-0.00123901	-0.00112335	-0.000999451	-0.000872803	-0.000746765	-0.000621643	-0.000498657	-0.00037677	-0.000256378	-0.000196594	-0.000136353	-0.000112488	-8.79211e-05	-7.58362e-05	-4.92554e-05	-3.5083e-05	-2.00317e-05	-1.21979e-05	-8.70972e-06	-6.67114e-06	-4.40369e-06
-0.188141	-0.000975647	-0.000868225	-0.0007547	-0.000641174	-0.00052887	-0.000418549	-0.000311554	-0.000208252	-0.000111206	-6.79626e-05	-3.04443e-05	-1.9046e-05	-1.02203e-05	-7.63245e-06	-4.76074e-06	-5.8136e-06	-7.0343e-06	-6.41785e-06	-5.24292e-06	-4.24194e-06	-2.97546e-06
-0.153992	-0.00051178	-0.000425415	-0.000338348	-0.000254181	-0.000174286	-0.000100464	-3.47839e-05	1.83197e-05	5.05981e-05	5.3894e-05	4.50989e-05	3.77716e-05	2.84912e-05	2.32422e-05	1.14471e-05	4.87976e-06	-8.8501e-07	-2.5116e-06	-2.46582e-06	-2.13928e-06	-1.6571e-06
-0.11972	-0.000206085	-0.000140411	-7.69653e-05	-1.84418e-05	3.29437e-05	7.54089e-05	0.000105438	0.000118713	0.000106903	8.90198e-05	6.30188e-05	5.06592e-05	3.73016e-05	3.05084e-05	1.59393e-05	8.27637e-06	1.37634e-06	-9.30786e-07	-1.25732e-06	-1.2207e-06	-1.02539e-06
-0.0855408	1.31439e-05	6.1554e-05	0.000104523	0.000140076	0.000166718	0.000183044	0.000185059	0.000168762	0.000130737	0.000103088	7.00073e-05	5.57556e-05	4.08844e-05	3.3493e-05	1.7868e-05	9.79919e-06	2.41394e-06	-1.31226e-07	-6.01196e-07	-6.74438e-07	-6.37817e-07
-0.0512085	0.000178284	0.000210419	0.00023468	0.000250977	0.000256836	0.000250702	0.000230713	0.0001953125	0.000142517	0.000109711	7.31506e-05	5.80139e-05	4.24561e-05	3.48022e-05	1.86798e-05	1.04004e-05	2.90222e-06	2.68555e-07	-2.68555e-07	-3.63159e-07	-3.84521e-07
-0.0168762	0.000303711	0.000321747	0.000329224	0.000327362	0.000315155	0.000292419	0.000257874	0.000210144	0.000148346	0.000112732	7.44019e-05	5.88379e-05	4.29474e-05	3.51868e-05	1.88446e-05	1.05164e-05	3.03345e-06	4.42505e-07	-9.46045e-08	-1.80054e-07	-2.59399e-07
0.00512085	0.000368988	0.00037735	0.000374512	0.000362823	0.000341858	0.000311066	0.000269501	0.000216064	0.000150421	0.000113647	7.47375e-05	5.9021e-05	4.296875E-05	3.5144e-05	1.87805e-05	1.04706e-05	3.02124e-06	4.5166e-07	-3.96729e-08	-1.67847e-07	-2.13623e-07